envelope_cell_id,layout_branch_id,fan_layout,test_environment_mode,family,target_heading_deg,direction_sign,start_class,latency_case,radius_bin_m,speed_bin_m_s,wing_mean_bin_m_s,margin_bin_m,trial_count,evaluated_trial_count,success_count,success_fraction,nominal_pass_count,conservative_pass_count,dominant_failure_label,dominant_governor_rejection_cause,mean_heading_error_deg,median_heading_error_deg,mean_energy_residual_m,mean_lift_dwell_fraction,min_true_margin_m_min,saturation_fraction_mean,cell_status,branch_decision_scope
"cell|branch=four_fan_branch|fan=four_fan|env=W1_four_fan|family=bank_yaw_energy_retaining|target=15p0|dir=-1|start=favourable|latency=nominal|radius=r[0.75,1.00)|speed=v[6.00,6.50)|wing_mean=ww[0.80,0.90)|margin=m[0.25,0.50)",four_fan_branch,four_fan,W1_four_fan,bank_yaw_energy_retaining,15.0,-1,favourable,nominal,"r[0.75,1.00)","v[6.00,6.50)","ww[0.80,0.90)","m[0.25,0.50)",2,2,2,1.0,2,0,success,none,2.0563650696301004,2.0563650696301004,0.1341158917654472,1.0,0.4557463852576591,0.0,all_success,branch_local_only_no_cross_layout_decision_transfer
"cell|branch=four_fan_branch|fan=four_fan|env=W1_four_fan|family=bank_yaw_energy_retaining|target=15p0|dir=-1|start=favourable|latency=nominal|radius=r[0.75,1.00)|speed=v[6.00,6.50)|wing_mean=ww[0.90,1.00)|margin=m[0.00,0.25)",four_fan_branch,four_fan,W1_four_fan,bank_yaw_energy_retaining,15.0,-1,favourable,nominal,"r[0.75,1.00)","v[6.00,6.50)","ww[0.90,1.00)","m[0.00,0.25)",1,1,1,1.0,1,0,success,none,0.817244436007428,0.817244436007428,0.0804791448472554,1.0,0.0165208452815672,0.0,all_success,branch_local_only_no_cross_layout_decision_transfer
"cell|branch=four_fan_branch|fan=four_fan|env=W1_four_fan|family=bank_yaw_energy_retaining|target=15p0|dir=-1|start=favourable|latency=nominal|radius=r[0.75,1.00)|speed=v[6.50,7.00)|wing_mean=ww[0.60,0.70)|margin=m[0.25,0.50)",four_fan_branch,four_fan,W1_four_fan,bank_yaw_energy_retaining,15.0,-1,favourable,nominal,"r[0.75,1.00)","v[6.50,7.00)","ww[0.60,0.70)","m[0.25,0.50)",1,1,1,1.0,1,0,success,none,1.641306591442499,1.641306591442499,0.2534938736984005,1.0,0.3623735514067787,0.0,all_success,branch_local_only_no_cross_layout_decision_transfer
"cell|branch=four_fan_branch|fan=four_fan|env=W1_four_fan|family=bank_yaw_energy_retaining|target=15p0|dir=-1|start=favourable|latency=nominal|radius=r[0.75,1.00)|speed=v[6.50,7.00)|wing_mean=ww[0.90,1.00)|margin=m[0.00,0.25)",four_fan_branch,four_fan,W1_four_fan,bank_yaw_energy_retaining,15.0,-1,favourable,nominal,"r[0.75,1.00)","v[6.50,7.00)","ww[0.90,1.00)","m[0.00,0.25)",1,1,1,1.0,1,0,success,none,2.727544417189911,2.727544417189911,0.1383038933373841,1.0,0.0365130689463191,0.0,all_success,branch_local_only_no_cross_layout_decision_transfer
"cell|branch=four_fan_branch|fan=four_fan|env=W1_four_fan|family=bank_yaw_energy_retaining|target=15p0|dir=-1|start=favourable|latency=nominal|radius=r[1.00,1.25)|speed=v[6.00,6.50)|wing_mean=ww[0.40,0.50)|margin=m[0.75,1.00)",four_fan_branch,four_fan,W1_four_fan,bank_yaw_energy_retaining,15.0,-1,favourable,nominal,"r[1.00,1.25)","v[6.00,6.50)","ww[0.40,0.50)","m[0.75,1.00)",1,1,1,1.0,1,0,success,none,4.47649062843098,4.47649062843098,0.172795980185664,1.0,0.8543419016445244,0.0,all_success,branch_local_only_no_cross_layout_decision_transfer
"cell|branch=four_fan_branch|fan=four_fan|env=W1_four_fan|family=bank_yaw_energy_retaining|target=15p0|dir=-1|start=favourable|latency=nominal|radius=r[1.00,1.25)|speed=v[6.00,6.50)|wing_mean=ww[0.50,0.60)|margin=m[0.75,1.00)",four_fan_branch,four_fan,W1_four_fan,bank_yaw_energy_retaining,15.0,-1,favourable,nominal,"r[1.00,1.25)","v[6.00,6.50)","ww[0.50,0.60)","m[0.75,1.00)",1,1,1,1.0,1,0,success,none,4.710245084743907,4.710245084743907,0.1189588100794143,1.0,0.9562424432126602,0.0,all_success,branch_local_only_no_cross_layout_decision_transfer
"cell|branch=four_fan_branch|fan=four_fan|env=W1_four_fan|family=bank_yaw_energy_retaining|target=15p0|dir=-1|start=favourable|latency=nominal|radius=r[1.00,1.25)|speed=v[6.00,6.50)|wing_mean=ww[0.60,0.70)|margin=m[0.25,0.50)",four_fan_branch,four_fan,W1_four_fan,bank_yaw_energy_retaining,15.0,-1,favourable,nominal,"r[1.00,1.25)","v[6.00,6.50)","ww[0.60,0.70)","m[0.25,0.50)",1,1,1,1.0,1,0,success,none,1.310487172427523,1.310487172427523,0.04442036492064,1.0,0.3344067601165328,0.0,all_success,branch_local_only_no_cross_layout_decision_transfer
"cell|branch=four_fan_branch|fan=four_fan|env=W1_four_fan|family=bank_yaw_energy_retaining|target=15p0|dir=-1|start=favourable|latency=nominal|radius=r[1.00,1.25)|speed=v[6.50,7.00)|wing_mean=ww[0.60,0.70)|margin=m[0.25,0.50)",four_fan_branch,four_fan,W1_four_fan,bank_yaw_energy_retaining,15.0,-1,favourable,nominal,"r[1.00,1.25)","v[6.50,7.00)","ww[0.60,0.70)","m[0.25,0.50)",1,1,1,1.0,1,0,success,none,4.733980672998074,4.733980672998074,0.0154798111046821,1.0,0.3024921952167929,0.0,all_success,branch_local_only_no_cross_layout_decision_transfer
"cell|branch=four_fan_branch|fan=four_fan|env=W1_four_fan|family=bank_yaw_energy_retaining|target=15p0|dir=-1|start=favourable|latency=nominal|radius=r[1.00,1.25)|speed=v[6.50,7.00)|wing_mean=ww[0.70,0.80)|margin=m[0.00,0.25)",four_fan_branch,four_fan,W1_four_fan,bank_yaw_energy_retaining,15.0,-1,favourable,nominal,"r[1.00,1.25)","v[6.50,7.00)","ww[0.70,0.80)","m[0.00,0.25)",1,1,1,1.0,1,0,success,none,3.60247527693811,3.60247527693811,-0.0380123336148647,1.0,0.1092346412869682,0.0,all_success,branch_local_only_no_cross_layout_decision_transfer
"cell|branch=four_fan_branch|fan=four_fan|env=W1_four_fan|family=bank_yaw_energy_retaining|target=15p0|dir=-1|start=favourable|latency=nominal|radius=r[1.25,1.50)|speed=v[6.00,6.50)|wing_mean=ww[0.40,0.50)|margin=m[0.50,0.75)",four_fan_branch,four_fan,W1_four_fan,bank_yaw_energy_retaining,15.0,-1,favourable,nominal,"r[1.25,1.50)","v[6.00,6.50)","ww[0.40,0.50)","m[0.50,0.75)",1,1,1,1.0,1,0,success,none,2.6462383246672108,2.6462383246672108,0.148723052071912,1.0,0.5987277019533259,0.0,all_success,branch_local_only_no_cross_layout_decision_transfer
"cell|branch=four_fan_branch|fan=four_fan|env=W1_four_fan|family=bank_yaw_energy_retaining|target=15p0|dir=-1|start=favourable|latency=nominal|radius=r[1.25,1.50)|speed=v[6.00,6.50)|wing_mean=ww[0.60,0.70)|margin=m[0.00,0.25)",four_fan_branch,four_fan,W1_four_fan,bank_yaw_energy_retaining,15.0,-1,favourable,nominal,"r[1.25,1.50)","v[6.00,6.50)","ww[0.60,0.70)","m[0.00,0.25)",1,1,1,1.0,1,0,success,none,2.034106528477823,2.034106528477823,-0.031237609768973,1.0,0.1115826281905256,0.0,all_success,branch_local_only_no_cross_layout_decision_transfer
"cell|branch=four_fan_branch|fan=four_fan|env=W1_four_fan|family=bank_yaw_energy_retaining|target=15p0|dir=-1|start=favourable|latency=nominal|radius=r[1.25,1.50)|speed=v[6.00,6.50)|wing_mean=ww[0.70,0.80)|margin=m[0.00,0.25)",four_fan_branch,four_fan,W1_four_fan,bank_yaw_energy_retaining,15.0,-1,favourable,nominal,"r[1.25,1.50)","v[6.00,6.50)","ww[0.70,0.80)","m[0.00,0.25)",1,1,1,1.0,1,0,success,none,4.970767450363367,4.970767450363367,-0.0088490136002388,1.0,0.1396941081834075,0.0,all_success,branch_local_only_no_cross_layout_decision_transfer
"cell|branch=four_fan_branch|fan=four_fan|env=W1_four_fan|family=bank_yaw_energy_retaining|target=15p0|dir=-1|start=favourable|latency=nominal|radius=r[1.25,1.50)|speed=v[6.50,7.00)|wing_mean=ww[0.30,0.40)|margin=m[0.75,1.00)",four_fan_branch,four_fan,W1_four_fan,bank_yaw_energy_retaining,15.0,-1,favourable,nominal,"r[1.25,1.50)","v[6.50,7.00)","ww[0.30,0.40)","m[0.75,1.00)",1,1,1,1.0,1,0,success,none,0.0990189462266073,0.0990189462266073,0.1492124702328601,1.0,0.8044456667637625,0.0,all_success,branch_local_only_no_cross_layout_decision_transfer
"cell|branch=four_fan_branch|fan=four_fan|env=W1_four_fan|family=bank_yaw_energy_retaining|target=15p0|dir=-1|start=favourable|latency=nominal|radius=r[1.50,1.75)|speed=v[6.00,6.50)|wing_mean=ww[0.30,0.40)|margin=m[0.50,0.75)",four_fan_branch,four_fan,W1_four_fan,bank_yaw_energy_retaining,15.0,-1,favourable,nominal,"r[1.50,1.75)","v[6.00,6.50)","ww[0.30,0.40)","m[0.50,0.75)",1,1,1,1.0,1,0,success,none,2.699249206102298,2.699249206102298,0.1283161564066381,1.0,0.7487372980030607,0.0,all_success,branch_local_only_no_cross_layout_decision_transfer
"cell|branch=four_fan_branch|fan=four_fan|env=W1_four_fan|family=bank_yaw_energy_retaining|target=15p0|dir=-1|start=favourable|latency=nominal|radius=r[1.50,1.75)|speed=v[6.00,6.50)|wing_mean=ww[0.60,0.70)|margin=m[0.75,1.00)",four_fan_branch,four_fan,W1_four_fan,bank_yaw_energy_retaining,15.0,-1,favourable,nominal,"r[1.50,1.75)","v[6.00,6.50)","ww[0.60,0.70)","m[0.75,1.00)",1,1,1,1.0,1,0,success,none,1.4167241451344346,1.4167241451344346,0.1018678263642502,1.0,0.8996392935024504,0.0,all_success,branch_local_only_no_cross_layout_decision_transfer
"cell|branch=four_fan_branch|fan=four_fan|env=W1_four_fan|family=bank_yaw_energy_retaining|target=15p0|dir=-1|start=favourable|latency=nominal|radius=r[1.50,1.75)|speed=v[6.00,6.50)|wing_mean=ww[0.70,0.80)|margin=m[0.25,0.50)",four_fan_branch,four_fan,W1_four_fan,bank_yaw_energy_retaining,15.0,-1,favourable,nominal,"r[1.50,1.75)","v[6.00,6.50)","ww[0.70,0.80)","m[0.25,0.50)",1,1,1,1.0,1,0,success,none,1.8957903992440104,1.8957903992440104,0.0339020644400571,1.0,0.3151224014712479,0.0,all_success,branch_local_only_no_cross_layout_decision_transfer
"cell|branch=four_fan_branch|fan=four_fan|env=W1_four_fan|family=bank_yaw_energy_retaining|target=15p0|dir=-1|start=favourable|latency=nominal|radius=r[1.50,1.75)|speed=v[6.00,6.50)|wing_mean=ww[0.80,0.90)|margin=m[0.25,0.50)",four_fan_branch,four_fan,W1_four_fan,bank_yaw_energy_retaining,15.0,-1,favourable,nominal,"r[1.50,1.75)","v[6.00,6.50)","ww[0.80,0.90)","m[0.25,0.50)",1,1,1,1.0,1,0,success,none,3.910782972672784,3.910782972672784,0.0869409140325814,1.0,0.3424968535528654,0.0,all_success,branch_local_only_no_cross_layout_decision_transfer
"cell|branch=four_fan_branch|fan=four_fan|env=W1_four_fan|family=bank_yaw_energy_retaining|target=15p0|dir=-1|start=favourable|latency=nominal|radius=r[1.50,1.75)|speed=v[6.50,7.00)|wing_mean=ww[0.40,0.50)|margin=m[0.50,0.75)",four_fan_branch,four_fan,W1_four_fan,bank_yaw_energy_retaining,15.0,-1,favourable,nominal,"r[1.50,1.75)","v[6.50,7.00)","ww[0.40,0.50)","m[0.50,0.75)",1,1,1,1.0,1,0,success,none,0.229602579574772,0.229602579574772,0.117124935528162,1.0,0.6969417734246592,0.0,all_success,branch_local_only_no_cross_layout_decision_transfer
"cell|branch=four_fan_branch|fan=four_fan|env=W1_four_fan|family=bank_yaw_energy_retaining|target=15p0|dir=-1|start=favourable|latency=nominal|radius=r[1.75,2.00)|speed=v[6.00,6.50)|wing_mean=ww[0.50,0.60)|margin=m[0.75,1.00)",four_fan_branch,four_fan,W1_four_fan,bank_yaw_energy_retaining,15.0,-1,favourable,nominal,"r[1.75,2.00)","v[6.00,6.50)","ww[0.50,0.60)","m[0.75,1.00)",1,1,1,1.0,1,0,success,none,2.8602189669773104,2.8602189669773104,0.0304743724088156,1.0,0.8504809887020153,0.0,all_success,branch_local_only_no_cross_layout_decision_transfer
"cell|branch=four_fan_branch|fan=four_fan|env=W1_four_fan|family=bank_yaw_energy_retaining|target=15p0|dir=-1|start=favourable|latency=nominal|radius=r[1.75,2.00)|speed=v[6.50,7.00)|wing_mean=ww[0.40,0.50)|margin=m[0.50,0.75)",four_fan_branch,four_fan,W1_four_fan,bank_yaw_energy_retaining,15.0,-1,favourable,nominal,"r[1.75,2.00)","v[6.50,7.00)","ww[0.40,0.50)","m[0.50,0.75)",1,1,1,1.0,1,0,success,none,3.811243500803087,3.811243500803087,0.348672654463952,1.0,0.6648716074845504,0.0,all_success,branch_local_only_no_cross_layout_decision_transfer
"cell|branch=four_fan_branch|fan=four_fan|env=W1_four_fan|family=bank_yaw_energy_retaining|target=15p0|dir=-1|start=favourable|latency=nominal|radius=r[1.75,2.00)|speed=v[6.50,7.00)|wing_mean=ww[0.50,0.60)|margin=m[0.25,0.50)",four_fan_branch,four_fan,W1_four_fan,bank_yaw_energy_retaining,15.0,-1,favourable,nominal,"r[1.75,2.00)","v[6.50,7.00)","ww[0.50,0.60)","m[0.25,0.50)",1,1,1,1.0,1,0,success,none,3.4278131050170018,3.4278131050170018,0.074536223067811,1.0,0.3132915974261427,0.0,all_success,branch_local_only_no_cross_layout_decision_transfer
"cell|branch=four_fan_branch|fan=four_fan|env=W1_four_fan|family=bank_yaw_energy_retaining|target=15p0|dir=-1|start=favourable|latency=nominal|radius=r[2.25,2.50)|speed=v[6.50,7.00)|wing_mean=ww[0.50,0.60)|margin=m[0.50,0.75)",four_fan_branch,four_fan,W1_four_fan,bank_yaw_energy_retaining,15.0,-1,favourable,nominal,"r[2.25,2.50)","v[6.50,7.00)","ww[0.50,0.60)","m[0.50,0.75)",1,1,1,1.0,1,0,success,none,4.974362969402367,4.974362969402367,0.1836686074722031,1.0,0.7076917246632064,0.0,all_success,branch_local_only_no_cross_layout_decision_transfer
"cell|branch=four_fan_branch|fan=four_fan|env=W1_four_fan|family=bank_yaw_energy_retaining|target=15p0|dir=-1|start=favourable|latency=nominal|radius=r[2.75,3.00)|speed=v[6.00,6.50)|wing_mean=ww[0.60,0.70)|margin=m[0.00,0.25)",four_fan_branch,four_fan,W1_four_fan,bank_yaw_energy_retaining,15.0,-1,favourable,nominal,"r[2.75,3.00)","v[6.00,6.50)","ww[0.60,0.70)","m[0.00,0.25)",1,1,1,1.0,1,0,success,none,2.685997276340025,2.685997276340025,0.1208999611629142,1.0,0.2110111453991709,0.0,all_success,branch_local_only_no_cross_layout_decision_transfer
"cell|branch=four_fan_branch|fan=four_fan|env=W1_four_fan|family=bank_yaw_energy_retaining|target=15p0|dir=-1|start=favourable|latency=nominal|radius=r[2.75,3.00)|speed=v[6.00,6.50)|wing_mean=ww[0.70,0.80)|margin=m[0.50,0.75)",four_fan_branch,four_fan,W1_four_fan,bank_yaw_energy_retaining,15.0,-1,favourable,nominal,"r[2.75,3.00)","v[6.00,6.50)","ww[0.70,0.80)","m[0.50,0.75)",1,1,1,1.0,1,0,success,none,3.6937788438721135,3.6937788438721135,0.1265561798894738,1.0,0.5973476405970999,0.0,all_success,branch_local_only_no_cross_layout_decision_transfer
"cell|branch=four_fan_branch|fan=four_fan|env=W1_four_fan|family=bank_yaw_energy_retaining|target=15p0|dir=-1|start=favourable|latency=nominal|radius=r[3.00,3.25)|speed=v[6.00,6.50)|wing_mean=ww[0.50,0.60)|margin=m[0.50,0.75)",four_fan_branch,four_fan,W1_four_fan,bank_yaw_energy_retaining,15.0,-1,favourable,nominal,"r[3.00,3.25)","v[6.00,6.50)","ww[0.50,0.60)","m[0.50,0.75)",1,1,1,1.0,1,0,success,none,4.733013464000473,4.733013464000473,0.1247725732969025,1.0,0.6256139354958119,0.0,all_success,branch_local_only_no_cross_layout_decision_transfer
"cell|branch=four_fan_branch|fan=four_fan|env=W1_four_fan|family=bank_yaw_energy_retaining|target=15p0|dir=-1|start=favourable|latency=nominal|radius=r[3.00,3.25)|speed=v[6.00,6.50)|wing_mean=ww[0.60,0.70)|margin=m[0.75,1.00)",four_fan_branch,four_fan,W1_four_fan,bank_yaw_energy_retaining,15.0,-1,favourable,nominal,"r[3.00,3.25)","v[6.00,6.50)","ww[0.60,0.70)","m[0.75,1.00)",1,1,1,1.0,1,0,success,none,1.102499079971583,1.102499079971583,0.1603604300555305,1.0,0.7786261939427197,0.0,all_success,branch_local_only_no_cross_layout_decision_transfer
"cell|branch=four_fan_branch|fan=four_fan|env=W1_four_fan|family=bank_yaw_energy_retaining|target=15p0|dir=-1|start=favourable|latency=nominal|radius=r[3.00,3.25)|speed=v[6.00,6.50)|wing_mean=ww[0.70,0.80)|margin=m[0.50,0.75)",four_fan_branch,four_fan,W1_four_fan,bank_yaw_energy_retaining,15.0,-1,favourable,nominal,"r[3.00,3.25)","v[6.00,6.50)","ww[0.70,0.80)","m[0.50,0.75)",1,1,1,1.0,1,0,success,none,2.9903896932585,2.9903896932585,0.2127201465387287,1.0,0.5612541872909063,0.0,all_success,branch_local_only_no_cross_layout_decision_transfer
"cell|branch=four_fan_branch|fan=four_fan|env=W1_four_fan|family=bank_yaw_energy_retaining|target=15p0|dir=-1|start=favourable|latency=nominal|radius=r[3.00,3.25)|speed=v[6.00,6.50)|wing_mean=ww[0.80,0.90)|margin=m[0.00,0.25)",four_fan_branch,four_fan,W1_four_fan,bank_yaw_energy_retaining,15.0,-1,favourable,nominal,"r[3.00,3.25)","v[6.00,6.50)","ww[0.80,0.90)","m[0.00,0.25)",1,1,1,1.0,1,0,success,none,2.210330734380495,2.210330734380495,-0.0284776479745643,1.0,0.0645482155223842,0.0,all_success,branch_local_only_no_cross_layout_decision_transfer
"cell|branch=four_fan_branch|fan=four_fan|env=W1_four_fan|family=bank_yaw_energy_retaining|target=15p0|dir=-1|start=favourable|latency=nominal|radius=r[3.00,3.25)|speed=v[6.00,6.50)|wing_mean=ww[0.90,1.00)|margin=m[0.25,0.50)",four_fan_branch,four_fan,W1_four_fan,bank_yaw_energy_retaining,15.0,-1,favourable,nominal,"r[3.00,3.25)","v[6.00,6.50)","ww[0.90,1.00)","m[0.25,0.50)",1,1,1,1.0,1,0,success,none,4.266697960665834,4.266697960665834,0.0610531506086315,1.0,0.2621134774837825,0.0,all_success,branch_local_only_no_cross_layout_decision_transfer
"cell|branch=four_fan_branch|fan=four_fan|env=W1_four_fan|family=bank_yaw_energy_retaining|target=15p0|dir=-1|start=favourable|latency=nominal|radius=r[3.00,3.25)|speed=v[6.50,7.00)|wing_mean=ww[0.40,0.50)|margin=m[0.00,0.25)",four_fan_branch,four_fan,W1_four_fan,bank_yaw_energy_retaining,15.0,-1,favourable,nominal,"r[3.00,3.25)","v[6.50,7.00)","ww[0.40,0.50)","m[0.00,0.25)",1,1,1,1.0,1,0,success,none,1.464987399260382,1.464987399260382,-0.005617296981319,1.0,0.1976394390454796,0.0,all_success,branch_local_only_no_cross_layout_decision_transfer
"cell|branch=four_fan_branch|fan=four_fan|env=W1_four_fan|family=bank_yaw_energy_retaining|target=15p0|dir=-1|start=favourable|latency=nominal|radius=r[3.00,3.25)|speed=v[6.50,7.00)|wing_mean=ww[0.50,0.60)|margin=m[0.00,0.25)",four_fan_branch,four_fan,W1_four_fan,bank_yaw_energy_retaining,15.0,-1,favourable,nominal,"r[3.00,3.25)","v[6.50,7.00)","ww[0.50,0.60)","m[0.00,0.25)",1,1,1,1.0,1,0,success,none,3.33590971860583,3.33590971860583,0.1374113010291715,1.0,0.1659944701561793,0.0,all_success,branch_local_only_no_cross_layout_decision_transfer
"cell|branch=four_fan_branch|fan=four_fan|env=W1_four_fan|family=bank_yaw_energy_retaining|target=15p0|dir=-1|start=favourable|latency=nominal|radius=r[3.00,3.25)|speed=v[6.50,7.00)|wing_mean=ww[0.70,0.80)|margin=m[0.25,0.50)",four_fan_branch,four_fan,W1_four_fan,bank_yaw_energy_retaining,15.0,-1,favourable,nominal,"r[3.00,3.25)","v[6.50,7.00)","ww[0.70,0.80)","m[0.25,0.50)",1,1,1,1.0,1,0,success,none,0.1771400467466151,0.1771400467466151,0.3380002508997326,1.0,0.4707741259257609,0.0,all_success,branch_local_only_no_cross_layout_decision_transfer
"cell|branch=four_fan_branch|fan=four_fan|env=W1_four_fan|family=bank_yaw_energy_retaining|target=15p0|dir=-1|start=favourable|latency=nominal|radius=r[3.25,3.50)|speed=v[6.00,6.50)|wing_mean=ww[0.50,0.60)|margin=m[0.50,0.75)",four_fan_branch,four_fan,W1_four_fan,bank_yaw_energy_retaining,15.0,-1,favourable,nominal,"r[3.25,3.50)","v[6.00,6.50)","ww[0.50,0.60)","m[0.50,0.75)",1,1,1,1.0,1,0,success,none,3.3226171213728684,3.3226171213728684,0.0097978199397967,1.0,0.6072622866142989,0.0,all_success,branch_local_only_no_cross_layout_decision_transfer
"cell|branch=four_fan_branch|fan=four_fan|env=W1_four_fan|family=bank_yaw_energy_retaining|target=15p0|dir=-1|start=favourable|latency=nominal|radius=r[3.25,3.50)|speed=v[6.50,7.00)|wing_mean=ww[0.40,0.50)|margin=m[0.50,0.75)",four_fan_branch,four_fan,W1_four_fan,bank_yaw_energy_retaining,15.0,-1,favourable,nominal,"r[3.25,3.50)","v[6.50,7.00)","ww[0.40,0.50)","m[0.50,0.75)",2,2,2,1.0,2,0,success,none,1.6428002427101296,1.6428002427101296,0.11269338241705901,1.0,0.5266819542387031,0.0,all_success,branch_local_only_no_cross_layout_decision_transfer
"cell|branch=four_fan_branch|fan=four_fan|env=W1_four_fan|family=bank_yaw_energy_retaining|target=15p0|dir=-1|start=favourable|latency=nominal|radius=r[3.25,3.50)|speed=v[6.50,7.00)|wing_mean=ww[0.50,0.60)|margin=m[0.50,0.75)",four_fan_branch,four_fan,W1_four_fan,bank_yaw_energy_retaining,15.0,-1,favourable,nominal,"r[3.25,3.50)","v[6.50,7.00)","ww[0.50,0.60)","m[0.50,0.75)",1,1,1,1.0,1,0,success,none,0.9045875313319058,0.9045875313319058,0.0014402438322136,1.0,0.5340052494456637,0.0,all_success,branch_local_only_no_cross_layout_decision_transfer
"cell|branch=four_fan_branch|fan=four_fan|env=W1_four_fan|family=bank_yaw_energy_retaining|target=15p0|dir=-1|start=favourable|latency=nominal|radius=r[3.50,3.75)|speed=v[6.00,6.50)|wing_mean=ww[0.20,0.30)|margin=m[0.75,1.00)",four_fan_branch,four_fan,W1_four_fan,bank_yaw_energy_retaining,15.0,-1,favourable,nominal,"r[3.50,3.75)","v[6.00,6.50)","ww[0.20,0.30)","m[0.75,1.00)",1,1,1,1.0,1,0,success,none,4.904086551076023,4.904086551076023,0.1821487525613836,1.0,0.8751945985700944,0.0,all_success,branch_local_only_no_cross_layout_decision_transfer
"cell|branch=four_fan_branch|fan=four_fan|env=W1_four_fan|family=bank_yaw_energy_retaining|target=15p0|dir=-1|start=favourable|latency=nominal|radius=r[3.50,3.75)|speed=v[6.00,6.50)|wing_mean=ww[0.30,0.40)|margin=m[0.75,1.00)",four_fan_branch,four_fan,W1_four_fan,bank_yaw_energy_retaining,15.0,-1,favourable,nominal,"r[3.50,3.75)","v[6.00,6.50)","ww[0.30,0.40)","m[0.75,1.00)",1,1,1,1.0,1,0,success,none,0.6583863122462965,0.6583863122462965,0.017413180692773,1.0,0.8417430377406605,0.0,all_success,branch_local_only_no_cross_layout_decision_transfer
"cell|branch=four_fan_branch|fan=four_fan|env=W1_four_fan|family=bank_yaw_energy_retaining|target=15p0|dir=-1|start=favourable|latency=nominal|radius=r[3.50,3.75)|speed=v[6.00,6.50)|wing_mean=ww[0.50,0.60)|margin=m[0.75,1.00)",four_fan_branch,four_fan,W1_four_fan,bank_yaw_energy_retaining,15.0,-1,favourable,nominal,"r[3.50,3.75)","v[6.00,6.50)","ww[0.50,0.60)","m[0.75,1.00)",1,1,1,1.0,1,0,success,none,3.3310000747721418,3.3310000747721418,0.037335723384416,1.0,0.8175048848857767,0.0,all_success,branch_local_only_no_cross_layout_decision_transfer
"cell|branch=four_fan_branch|fan=four_fan|env=W1_four_fan|family=bank_yaw_energy_retaining|target=15p0|dir=-1|start=favourable|latency=nominal|radius=r[3.50,3.75)|speed=v[6.50,7.00)|wing_mean=ww[0.50,0.60)|margin=m[0.25,0.50)",four_fan_branch,four_fan,W1_four_fan,bank_yaw_energy_retaining,15.0,-1,favourable,nominal,"r[3.50,3.75)","v[6.50,7.00)","ww[0.50,0.60)","m[0.25,0.50)",1,1,1,1.0,1,0,success,none,1.7903575586161296,1.7903575586161296,0.0405341886928383,1.0,0.4537414726141984,0.0,all_success,branch_local_only_no_cross_layout_decision_transfer
"cell|branch=four_fan_branch|fan=four_fan|env=W1_four_fan|family=bank_yaw_energy_retaining|target=15p0|dir=-1|start=lift_sector|latency=nominal|radius=r[0.00,0.25)|speed=v[5.00,5.50)|wing_mean=ww[1.00,1.10)|margin=m[0.25,0.50)",four_fan_branch,four_fan,W1_four_fan,bank_yaw_energy_retaining,15.0,-1,lift_sector,nominal,"r[0.00,0.25)","v[5.00,5.50)","ww[1.00,1.10)","m[0.25,0.50)",1,1,1,1.0,1,0,success,none,4.283037903469989,4.283037903469989,-0.1893144714060506,1.0,0.4112753911145264,0.0,all_success,branch_local_only_no_cross_layout_decision_transfer
"cell|branch=four_fan_branch|fan=four_fan|env=W1_four_fan|family=bank_yaw_energy_retaining|target=15p0|dir=-1|start=lift_sector|latency=nominal|radius=r[0.00,0.25)|speed=v[5.00,5.50)|wing_mean=ww[1.20,1.30)|margin=m[0.00,0.25)",four_fan_branch,four_fan,W1_four_fan,bank_yaw_energy_retaining,15.0,-1,lift_sector,nominal,"r[0.00,0.25)","v[5.00,5.50)","ww[1.20,1.30)","m[0.00,0.25)",1,1,1,1.0,1,0,success,none,0.9153671754282656,0.9153671754282656,0.0522916826343848,1.0,0.0052610592896464,0.0,all_success,branch_local_only_no_cross_layout_decision_transfer
"cell|branch=four_fan_branch|fan=four_fan|env=W1_four_fan|family=bank_yaw_energy_retaining|target=15p0|dir=-1|start=lift_sector|latency=nominal|radius=r[0.00,0.25)|speed=v[5.00,5.50)|wing_mean=ww[1.70,1.80)|margin=m[0.50,0.75)",four_fan_branch,four_fan,W1_four_fan,bank_yaw_energy_retaining,15.0,-1,lift_sector,nominal,"r[0.00,0.25)","v[5.00,5.50)","ww[1.70,1.80)","m[0.50,0.75)",1,1,1,1.0,1,0,success,none,4.501714214969766,4.501714214969766,0.2662519428465986,1.0,0.5430046094408846,0.0,all_success,branch_local_only_no_cross_layout_decision_transfer
"cell|branch=four_fan_branch|fan=four_fan|env=W1_four_fan|family=bank_yaw_energy_retaining|target=15p0|dir=-1|start=lift_sector|latency=nominal|radius=r[0.00,0.25)|speed=v[5.50,6.00)|wing_mean=ww[1.10,1.20)|margin=m[0.25,0.50)",four_fan_branch,four_fan,W1_four_fan,bank_yaw_energy_retaining,15.0,-1,lift_sector,nominal,"r[0.00,0.25)","v[5.50,6.00)","ww[1.10,1.20)","m[0.25,0.50)",1,1,1,1.0,1,0,success,none,3.701160011926589,3.701160011926589,0.105635230719864,1.0,0.2815077171536627,0.0,all_success,branch_local_only_no_cross_layout_decision_transfer
"cell|branch=four_fan_branch|fan=four_fan|env=W1_four_fan|family=bank_yaw_energy_retaining|target=15p0|dir=-1|start=lift_sector|latency=nominal|radius=r[0.00,0.25)|speed=v[5.50,6.00)|wing_mean=ww[1.30,1.40)|margin=m[0.00,0.25)",four_fan_branch,four_fan,W1_four_fan,bank_yaw_energy_retaining,15.0,-1,lift_sector,nominal,"r[0.00,0.25)","v[5.50,6.00)","ww[1.30,1.40)","m[0.00,0.25)",1,1,1,1.0,1,0,success,none,3.1284418098407656,3.1284418098407656,0.2936707715411533,1.0,0.2142419417088031,0.0,all_success,branch_local_only_no_cross_layout_decision_transfer
"cell|branch=four_fan_branch|fan=four_fan|env=W1_four_fan|family=bank_yaw_energy_retaining|target=15p0|dir=-1|start=lift_sector|latency=nominal|radius=r[0.00,0.25)|speed=v[6.00,6.50)|wing_mean=ww[1.10,1.20)|margin=m[0.75,1.00)",four_fan_branch,four_fan,W1_four_fan,bank_yaw_energy_retaining,15.0,-1,lift_sector,nominal,"r[0.00,0.25)","v[6.00,6.50)","ww[1.10,1.20)","m[0.75,1.00)",1,1,1,1.0,1,0,success,none,0.6262923184904707,0.6262923184904707,0.0405395886289996,1.0,0.8050970248039144,0.0,all_success,branch_local_only_no_cross_layout_decision_transfer
"cell|branch=four_fan_branch|fan=four_fan|env=W1_four_fan|family=bank_yaw_energy_retaining|target=15p0|dir=-1|start=lift_sector|latency=nominal|radius=r[0.00,0.25)|speed=v[6.00,6.50)|wing_mean=ww[1.20,1.30)|margin=m[0.25,0.50)",four_fan_branch,four_fan,W1_four_fan,bank_yaw_energy_retaining,15.0,-1,lift_sector,nominal,"r[0.00,0.25)","v[6.00,6.50)","ww[1.20,1.30)","m[0.25,0.50)",1,1,1,1.0,1,0,success,none,0.8075961108961565,0.8075961108961565,0.0537210456720904,1.0,0.4371533879573999,0.0,all_success,branch_local_only_no_cross_layout_decision_transfer
"cell|branch=four_fan_branch|fan=four_fan|env=W1_four_fan|family=bank_yaw_energy_retaining|target=15p0|dir=-1|start=lift_sector|latency=nominal|radius=r[0.00,0.25)|speed=v[6.00,6.50)|wing_mean=ww[1.40,1.50)|margin=m[0.00,0.25)",four_fan_branch,four_fan,W1_four_fan,bank_yaw_energy_retaining,15.0,-1,lift_sector,nominal,"r[0.00,0.25)","v[6.00,6.50)","ww[1.40,1.50)","m[0.00,0.25)",1,1,1,1.0,1,0,success,none,3.1526696690106064,3.1526696690106064,0.1274458252230523,1.0,0.0439997005138836,0.0,all_success,branch_local_only_no_cross_layout_decision_transfer
"cell|branch=four_fan_branch|fan=four_fan|env=W1_four_fan|family=bank_yaw_energy_retaining|target=15p0|dir=-1|start=lift_sector|latency=nominal|radius=r[0.00,0.25)|speed=v[6.50,7.00)|wing_mean=ww[1.00,1.10)|margin=m[0.00,0.25)",four_fan_branch,four_fan,W1_four_fan,bank_yaw_energy_retaining,15.0,-1,lift_sector,nominal,"r[0.00,0.25)","v[6.50,7.00)","ww[1.00,1.10)","m[0.00,0.25)",1,1,1,1.0,1,0,success,none,2.429409610367827,2.429409610367827,0.0619165806355539,1.0,0.1357244100845049,0.0,all_success,branch_local_only_no_cross_layout_decision_transfer
"cell|branch=four_fan_branch|fan=four_fan|env=W1_four_fan|family=bank_yaw_energy_retaining|target=15p0|dir=-1|start=lift_sector|latency=nominal|radius=r[0.00,0.25)|speed=v[6.50,7.00)|wing_mean=ww[1.10,1.20)|margin=m[0.25,0.50)",four_fan_branch,four_fan,W1_four_fan,bank_yaw_energy_retaining,15.0,-1,lift_sector,nominal,"r[0.00,0.25)","v[6.50,7.00)","ww[1.10,1.20)","m[0.25,0.50)",1,1,1,1.0,1,0,success,none,2.1512614863008253,2.1512614863008253,0.1040761448787206,1.0,0.4233624808675391,0.0,all_success,branch_local_only_no_cross_layout_decision_transfer
"cell|branch=four_fan_branch|fan=four_fan|env=W1_four_fan|family=bank_yaw_energy_retaining|target=15p0|dir=-1|start=lift_sector|latency=nominal|radius=r[0.00,0.25)|speed=v[6.50,7.00)|wing_mean=ww[2.00,2.10)|margin=m[0.25,0.50)",four_fan_branch,four_fan,W1_four_fan,bank_yaw_energy_retaining,15.0,-1,lift_sector,nominal,"r[0.00,0.25)","v[6.50,7.00)","ww[2.00,2.10)","m[0.25,0.50)",1,1,1,1.0,1,0,success,none,1.191002036830881,1.191002036830881,0.2077475590634718,1.0,0.436261683139322,0.0,all_success,branch_local_only_no_cross_layout_decision_transfer
"cell|branch=four_fan_branch|fan=four_fan|env=W1_four_fan|family=bank_yaw_energy_retaining|target=15p0|dir=-1|start=lift_sector|latency=nominal|radius=r[0.00,0.25)|speed=v[7.00,7.50)|wing_mean=ww[1.10,1.20)|margin=m[0.25,0.50)",four_fan_branch,four_fan,W1_four_fan,bank_yaw_energy_retaining,15.0,-1,lift_sector,nominal,"r[0.00,0.25)","v[7.00,7.50)","ww[1.10,1.20)","m[0.25,0.50)",1,1,1,1.0,1,0,success,none,1.0485654978357104,1.0485654978357104,-0.0152870604825823,1.0,0.4536925182521393,0.0,all_success,branch_local_only_no_cross_layout_decision_transfer
"cell|branch=four_fan_branch|fan=four_fan|env=W1_four_fan|family=bank_yaw_energy_retaining|target=15p0|dir=-1|start=lift_sector|latency=nominal|radius=r[0.25,0.50)|speed=v[5.50,6.00)|wing_mean=ww[0.80,0.90)|margin=m[0.75,1.00)",four_fan_branch,four_fan,W1_four_fan,bank_yaw_energy_retaining,15.0,-1,lift_sector,nominal,"r[0.25,0.50)","v[5.50,6.00)","ww[0.80,0.90)","m[0.75,1.00)",1,1,1,1.0,1,0,success,none,1.281295049063317,1.281295049063317,0.1074118759074531,1.0,0.7834491642727057,0.0,all_success,branch_local_only_no_cross_layout_decision_transfer
"cell|branch=four_fan_branch|fan=four_fan|env=W1_four_fan|family=bank_yaw_energy_retaining|target=15p0|dir=-1|start=lift_sector|latency=nominal|radius=r[0.25,0.50)|speed=v[5.50,6.00)|wing_mean=ww[1.10,1.20)|margin=m[0.75,1.00)",four_fan_branch,four_fan,W1_four_fan,bank_yaw_energy_retaining,15.0,-1,lift_sector,nominal,"r[0.25,0.50)","v[5.50,6.00)","ww[1.10,1.20)","m[0.75,1.00)",1,1,1,1.0,1,0,success,none,2.0456447822164847,2.0456447822164847,0.1296118523996421,1.0,0.8305360534603894,0.0,all_success,branch_local_only_no_cross_layout_decision_transfer
"cell|branch=four_fan_branch|fan=four_fan|env=W1_four_fan|family=bank_yaw_energy_retaining|target=15p0|dir=-1|start=lift_sector|latency=nominal|radius=r[0.25,0.50)|speed=v[5.50,6.00)|wing_mean=ww[1.20,1.30)|margin=m[0.75,1.00)",four_fan_branch,four_fan,W1_four_fan,bank_yaw_energy_retaining,15.0,-1,lift_sector,nominal,"r[0.25,0.50)","v[5.50,6.00)","ww[1.20,1.30)","m[0.75,1.00)",1,1,1,1.0,1,0,success,none,4.5663813264551045,4.5663813264551045,0.1138598256540923,1.0,0.822701872108337,0.0,all_success,branch_local_only_no_cross_layout_decision_transfer
"cell|branch=four_fan_branch|fan=four_fan|env=W1_four_fan|family=bank_yaw_energy_retaining|target=15p0|dir=-1|start=lift_sector|latency=nominal|radius=r[0.25,0.50)|speed=v[5.50,6.00)|wing_mean=ww[1.70,1.80)|margin=m[0.25,0.50)",four_fan_branch,four_fan,W1_four_fan,bank_yaw_energy_retaining,15.0,-1,lift_sector,nominal,"r[0.25,0.50)","v[5.50,6.00)","ww[1.70,1.80)","m[0.25,0.50)",1,1,1,1.0,1,0,success,none,0.906294673936472,0.906294673936472,0.2509296606773299,1.0,0.4028571555513733,0.0,all_success,branch_local_only_no_cross_layout_decision_transfer
"cell|branch=four_fan_branch|fan=four_fan|env=W1_four_fan|family=bank_yaw_energy_retaining|target=15p0|dir=-1|start=lift_sector|latency=nominal|radius=r[0.25,0.50)|speed=v[6.00,6.50)|wing_mean=ww[1.10,1.20)|margin=m[0.75,1.00)",four_fan_branch,four_fan,W1_four_fan,bank_yaw_energy_retaining,15.0,-1,lift_sector,nominal,"r[0.25,0.50)","v[6.00,6.50)","ww[1.10,1.20)","m[0.75,1.00)",1,1,1,1.0,1,0,success,none,4.001136425434481,4.001136425434481,0.1623684232464746,1.0,0.7885642314527337,0.0,all_success,branch_local_only_no_cross_layout_decision_transfer
"cell|branch=four_fan_branch|fan=four_fan|env=W1_four_fan|family=bank_yaw_energy_retaining|target=15p0|dir=-1|start=lift_sector|latency=nominal|radius=r[0.25,0.50)|speed=v[6.00,6.50)|wing_mean=ww[1.30,1.40)|margin=m[0.25,0.50)",four_fan_branch,four_fan,W1_four_fan,bank_yaw_energy_retaining,15.0,-1,lift_sector,nominal,"r[0.25,0.50)","v[6.00,6.50)","ww[1.30,1.40)","m[0.25,0.50)",1,1,1,1.0,1,0,success,none,1.035717898760538,1.035717898760538,0.123190483791717,1.0,0.4775987044274405,0.0,all_success,branch_local_only_no_cross_layout_decision_transfer
"cell|branch=four_fan_branch|fan=four_fan|env=W1_four_fan|family=bank_yaw_energy_retaining|target=15p0|dir=-1|start=lift_sector|latency=nominal|radius=r[0.25,0.50)|speed=v[6.00,6.50)|wing_mean=ww[1.70,1.80)|margin=m[0.00,0.25)",four_fan_branch,four_fan,W1_four_fan,bank_yaw_energy_retaining,15.0,-1,lift_sector,nominal,"r[0.25,0.50)","v[6.00,6.50)","ww[1.70,1.80)","m[0.00,0.25)",1,1,1,1.0,1,0,success,none,2.7160199288961597,2.7160199288961597,-0.0403964237512881,1.0,0.0839060832183717,0.0,all_success,branch_local_only_no_cross_layout_decision_transfer
"cell|branch=four_fan_branch|fan=four_fan|env=W1_four_fan|family=bank_yaw_energy_retaining|target=15p0|dir=-1|start=lift_sector|latency=nominal|radius=r[0.25,0.50)|speed=v[6.50,7.00)|wing_mean=ww[1.10,1.20)|margin=m[0.25,0.50)",four_fan_branch,four_fan,W1_four_fan,bank_yaw_energy_retaining,15.0,-1,lift_sector,nominal,"r[0.25,0.50)","v[6.50,7.00)","ww[1.10,1.20)","m[0.25,0.50)",1,1,1,1.0,1,0,success,none,1.5840374308748617,1.5840374308748617,0.0857318015095529,1.0,0.4705359981705204,0.0,all_success,branch_local_only_no_cross_layout_decision_transfer
"cell|branch=four_fan_branch|fan=four_fan|env=W1_four_fan|family=bank_yaw_energy_retaining|target=15p0|dir=-1|start=lift_sector|latency=nominal|radius=r[0.50,0.75)|speed=v[5.00,5.50)|wing_mean=ww[0.70,0.80)|margin=m[0.75,1.00)",four_fan_branch,four_fan,W1_four_fan,bank_yaw_energy_retaining,15.0,-1,lift_sector,nominal,"r[0.50,0.75)","v[5.00,5.50)","ww[0.70,0.80)","m[0.75,1.00)",1,1,1,1.0,1,0,success,none,3.260770709728117,3.260770709728117,0.1731284779522224,1.0,0.8815077184312475,0.0,all_success,branch_local_only_no_cross_layout_decision_transfer
"cell|branch=four_fan_branch|fan=four_fan|env=W1_four_fan|family=bank_yaw_energy_retaining|target=15p0|dir=-1|start=lift_sector|latency=nominal|radius=r[0.50,0.75)|speed=v[5.00,5.50)|wing_mean=ww[0.80,0.90)|margin=m[0.50,0.75)",four_fan_branch,four_fan,W1_four_fan,bank_yaw_energy_retaining,15.0,-1,lift_sector,nominal,"r[0.50,0.75)","v[5.00,5.50)","ww[0.80,0.90)","m[0.50,0.75)",1,1,1,1.0,1,0,success,none,3.147927784832504,3.147927784832504,0.1103955947542147,1.0,0.5399064815260388,0.0,all_success,branch_local_only_no_cross_layout_decision_transfer
"cell|branch=four_fan_branch|fan=four_fan|env=W1_four_fan|family=bank_yaw_energy_retaining|target=15p0|dir=-1|start=lift_sector|latency=nominal|radius=r[0.50,0.75)|speed=v[6.00,6.50)|wing_mean=ww[0.80,0.90)|margin=m[0.25,0.50)",four_fan_branch,four_fan,W1_four_fan,bank_yaw_energy_retaining,15.0,-1,lift_sector,nominal,"r[0.50,0.75)","v[6.00,6.50)","ww[0.80,0.90)","m[0.25,0.50)",1,1,1,1.0,1,0,success,none,2.927020501041369,2.927020501041369,0.3049809016769758,1.0,0.4880251634548838,0.0,all_success,branch_local_only_no_cross_layout_decision_transfer
"cell|branch=four_fan_branch|fan=four_fan|env=W1_four_fan|family=bank_yaw_energy_retaining|target=15p0|dir=-1|start=lift_sector|latency=nominal|radius=r[0.50,0.75)|speed=v[6.00,6.50)|wing_mean=ww[1.00,1.10)|margin=m[0.25,0.50)",four_fan_branch,four_fan,W1_four_fan,bank_yaw_energy_retaining,15.0,-1,lift_sector,nominal,"r[0.50,0.75)","v[6.00,6.50)","ww[1.00,1.10)","m[0.25,0.50)",2,2,2,1.0,2,0,success,none,1.6269652287377392,1.6269652287377392,0.21069974358649254,1.0,0.4016294618837565,0.0,all_success,branch_local_only_no_cross_layout_decision_transfer
"cell|branch=four_fan_branch|fan=four_fan|env=W1_four_fan|family=bank_yaw_energy_retaining|target=15p0|dir=-1|start=lift_sector|latency=nominal|radius=r[0.50,0.75)|speed=v[6.00,6.50)|wing_mean=ww[1.00,1.10)|margin=m[0.50,0.75)",four_fan_branch,four_fan,W1_four_fan,bank_yaw_energy_retaining,15.0,-1,lift_sector,nominal,"r[0.50,0.75)","v[6.00,6.50)","ww[1.00,1.10)","m[0.50,0.75)",1,1,1,1.0,1,0,success,none,3.810233582724692,3.810233582724692,0.0733226293957365,1.0,0.6626678186005748,0.0,all_success,branch_local_only_no_cross_layout_decision_transfer
"cell|branch=four_fan_branch|fan=four_fan|env=W1_four_fan|family=bank_yaw_energy_retaining|target=15p0|dir=-1|start=lift_sector|latency=nominal|radius=r[0.75,1.00)|speed=v[5.50,6.00)|wing_mean=ww[0.50,0.60)|margin=m[0.25,0.50)",four_fan_branch,four_fan,W1_four_fan,bank_yaw_energy_retaining,15.0,-1,lift_sector,nominal,"r[0.75,1.00)","v[5.50,6.00)","ww[0.50,0.60)","m[0.25,0.50)",1,1,1,1.0,1,0,success,none,4.535673029700575,4.535673029700575,0.2050682755730046,1.0,0.3095893995091092,0.0,all_success,branch_local_only_no_cross_layout_decision_transfer
"cell|branch=four_fan_branch|fan=four_fan|env=W1_four_fan|family=bank_yaw_energy_retaining|target=15p0|dir=-1|start=lift_sector|latency=nominal|radius=r[0.75,1.00)|speed=v[5.50,6.00)|wing_mean=ww[0.70,0.80)|margin=m[0.25,0.50)",four_fan_branch,four_fan,W1_four_fan,bank_yaw_energy_retaining,15.0,-1,lift_sector,nominal,"r[0.75,1.00)","v[5.50,6.00)","ww[0.70,0.80)","m[0.25,0.50)",1,1,1,1.0,1,0,success,none,1.323582794570903,1.323582794570903,0.1239271692186076,1.0,0.4826442487537806,0.0,all_success,branch_local_only_no_cross_layout_decision_transfer
"cell|branch=four_fan_branch|fan=four_fan|env=W1_four_fan|family=bank_yaw_energy_retaining|target=15p0|dir=-1|start=lift_sector|latency=nominal|radius=r[0.75,1.00)|speed=v[6.00,6.50)|wing_mean=ww[0.90,1.00)|margin=m[0.00,0.25)",four_fan_branch,four_fan,W1_four_fan,bank_yaw_energy_retaining,15.0,-1,lift_sector,nominal,"r[0.75,1.00)","v[6.00,6.50)","ww[0.90,1.00)","m[0.00,0.25)",2,2,2,1.0,2,0,success,none,1.1274692185796553,1.1274692185796553,0.24130441989052714,1.0,0.0499999999999998,0.0,all_success,branch_local_only_no_cross_layout_decision_transfer
"cell|branch=four_fan_branch|fan=four_fan|env=W1_four_fan|family=bank_yaw_energy_retaining|target=15p0|dir=-1|start=lift_sector|latency=nominal|radius=r[0.75,1.00)|speed=v[6.50,7.00)|wing_mean=ww[0.50,0.60)|margin=m[0.00,0.25)",four_fan_branch,four_fan,W1_four_fan,bank_yaw_energy_retaining,15.0,-1,lift_sector,nominal,"r[0.75,1.00)","v[6.50,7.00)","ww[0.50,0.60)","m[0.00,0.25)",2,2,2,1.0,2,0,success,none,0.9158157319373359,0.9158157319373359,0.1202867453823359,1.0,0.1268700731123544,0.0,all_success,branch_local_only_no_cross_layout_decision_transfer
"cell|branch=four_fan_branch|fan=four_fan|env=W1_four_fan|family=bank_yaw_energy_retaining|target=15p0|dir=-1|start=lift_sector|latency=nominal|radius=r[0.75,1.00)|speed=v[6.50,7.00)|wing_mean=ww[0.70,0.80)|margin=m[0.00,0.25)",four_fan_branch,four_fan,W1_four_fan,bank_yaw_energy_retaining,15.0,-1,lift_sector,nominal,"r[0.75,1.00)","v[6.50,7.00)","ww[0.70,0.80)","m[0.00,0.25)",1,1,1,1.0,1,0,success,none,1.373096970279427,1.373096970279427,0.1269347661889304,1.0,0.0499999999999998,0.0,all_success,branch_local_only_no_cross_layout_decision_transfer
"cell|branch=four_fan_branch|fan=four_fan|env=W1_four_fan|family=bank_yaw_energy_retaining|target=15p0|dir=-1|start=lift_sector|latency=nominal|radius=r[0.75,1.00)|speed=v[6.50,7.00)|wing_mean=ww[0.90,1.00)|margin=m[0.00,0.25)",four_fan_branch,four_fan,W1_four_fan,bank_yaw_energy_retaining,15.0,-1,lift_sector,nominal,"r[0.75,1.00)","v[6.50,7.00)","ww[0.90,1.00)","m[0.00,0.25)",1,1,1,1.0,1,0,success,none,0.3130997066539578,0.3130997066539578,-0.0194242129265367,1.0,0.1032342814869133,0.0,all_success,branch_local_only_no_cross_layout_decision_transfer
"cell|branch=four_fan_branch|fan=four_fan|env=W1_four_fan|family=bank_yaw_energy_retaining|target=15p0|dir=-1|start=lift_sector|latency=nominal|radius=r[0.75,1.00)|speed=v[6.50,7.00)|wing_mean=ww[0.90,1.00)|margin=m[0.25,0.50)",four_fan_branch,four_fan,W1_four_fan,bank_yaw_energy_retaining,15.0,-1,lift_sector,nominal,"r[0.75,1.00)","v[6.50,7.00)","ww[0.90,1.00)","m[0.25,0.50)",1,1,1,1.0,1,0,success,none,2.0933559910659767,2.0933559910659767,-0.0870492161712315,1.0,0.4674127481529566,0.0,all_success,branch_local_only_no_cross_layout_decision_transfer
"cell|branch=four_fan_branch|fan=four_fan|env=W1_four_fan|family=bank_yaw_energy_retaining|target=15p0|dir=-1|start=lift_sector|latency=nominal|radius=r[0.75,1.00)|speed=v[6.50,7.00)|wing_mean=ww[1.00,1.10)|margin=m[0.25,0.50)",four_fan_branch,four_fan,W1_four_fan,bank_yaw_energy_retaining,15.0,-1,lift_sector,nominal,"r[0.75,1.00)","v[6.50,7.00)","ww[1.00,1.10)","m[0.25,0.50)",1,1,1,1.0,1,0,success,none,4.490074471585501,4.490074471585501,0.1694645393443323,1.0,0.4945943124146962,0.0,all_success,branch_local_only_no_cross_layout_decision_transfer
"cell|branch=four_fan_branch|fan=four_fan|env=W1_four_fan|family=bank_yaw_energy_retaining|target=15p0|dir=-1|start=lift_sector|latency=nominal|radius=r[0.75,1.00)|speed=v[7.00,7.50)|wing_mean=ww[0.50,0.60)|margin=m[0.25,0.50)",four_fan_branch,four_fan,W1_four_fan,bank_yaw_energy_retaining,15.0,-1,lift_sector,nominal,"r[0.75,1.00)","v[7.00,7.50)","ww[0.50,0.60)","m[0.25,0.50)",1,1,1,1.0,1,0,success,none,0.0620988500706261,0.0620988500706261,0.0650828389506905,1.0,0.2527849911614539,0.0,all_success,branch_local_only_no_cross_layout_decision_transfer
"cell|branch=four_fan_branch|fan=four_fan|env=W1_four_fan|family=bank_yaw_energy_retaining|target=15p0|dir=-1|start=lift_sector|latency=nominal|radius=r[0.75,1.00)|speed=v[7.00,7.50)|wing_mean=ww[0.70,0.80)|margin=m[0.00,0.25)",four_fan_branch,four_fan,W1_four_fan,bank_yaw_energy_retaining,15.0,-1,lift_sector,nominal,"r[0.75,1.00)","v[7.00,7.50)","ww[0.70,0.80)","m[0.00,0.25)",1,1,1,1.0,1,0,success,none,0.4887751490757921,0.4887751490757921,-0.0564178962386732,1.0,0.1611993744998496,0.0,all_success,branch_local_only_no_cross_layout_decision_transfer
"cell|branch=four_fan_branch|fan=four_fan|env=W1_four_fan|family=bank_yaw_energy_retaining|target=15p0|dir=-1|start=lift_sector|latency=nominal|radius=r[1.00,1.25)|speed=v[5.50,6.00)|wing_mean=ww[0.20,0.30)|margin=m[0.00,0.25)",four_fan_branch,four_fan,W1_four_fan,bank_yaw_energy_retaining,15.0,-1,lift_sector,nominal,"r[1.00,1.25)","v[5.50,6.00)","ww[0.20,0.30)","m[0.00,0.25)",1,1,1,1.0,1,0,success,none,2.869468788019674,2.869468788019674,0.0601404621273147,1.0,0.0725311364103182,0.0,all_success,branch_local_only_no_cross_layout_decision_transfer
"cell|branch=four_fan_branch|fan=four_fan|env=W1_four_fan|family=bank_yaw_energy_retaining|target=15p0|dir=-1|start=lift_sector|latency=nominal|radius=r[1.00,1.25)|speed=v[5.50,6.00)|wing_mean=ww[0.50,0.60)|margin=m[1.00,1.25)",four_fan_branch,four_fan,W1_four_fan,bank_yaw_energy_retaining,15.0,-1,lift_sector,nominal,"r[1.00,1.25)","v[5.50,6.00)","ww[0.50,0.60)","m[1.00,1.25)",1,1,1,1.0,1,0,success,none,4.190015766499386,4.190015766499386,0.1428688650487797,1.0,1.0319180236995953,0.0,all_success,branch_local_only_no_cross_layout_decision_transfer
"cell|branch=four_fan_branch|fan=four_fan|env=W1_four_fan|family=bank_yaw_energy_retaining|target=15p0|dir=-1|start=lift_sector|latency=nominal|radius=r[1.00,1.25)|speed=v[6.00,6.50)|wing_mean=ww[0.50,0.60)|margin=m[0.50,0.75)",four_fan_branch,four_fan,W1_four_fan,bank_yaw_energy_retaining,15.0,-1,lift_sector,nominal,"r[1.00,1.25)","v[6.00,6.50)","ww[0.50,0.60)","m[0.50,0.75)",1,1,1,1.0,1,0,success,none,3.8407917414657646,3.8407917414657646,0.1932342167170171,1.0,0.7429121536851628,0.0,all_success,branch_local_only_no_cross_layout_decision_transfer
"cell|branch=four_fan_branch|fan=four_fan|env=W1_four_fan|family=bank_yaw_energy_retaining|target=15p0|dir=-1|start=lift_sector|latency=nominal|radius=r[1.00,1.25)|speed=v[6.00,6.50)|wing_mean=ww[0.60,0.70)|margin=m[0.50,0.75)",four_fan_branch,four_fan,W1_four_fan,bank_yaw_energy_retaining,15.0,-1,lift_sector,nominal,"r[1.00,1.25)","v[6.00,6.50)","ww[0.60,0.70)","m[0.50,0.75)",1,1,1,1.0,1,0,success,none,4.635091618383438,4.635091618383438,0.1975644052427796,1.0,0.6190438598073018,0.0,all_success,branch_local_only_no_cross_layout_decision_transfer
"cell|branch=four_fan_branch|fan=four_fan|env=W1_four_fan|family=bank_yaw_energy_retaining|target=15p0|dir=-1|start=mid_arena|latency=nominal|radius=r[0.50,0.75)|speed=v[6.50,7.00)|wing_mean=ww[1.00,1.10)|margin=m[0.25,0.50)",four_fan_branch,four_fan,W1_four_fan,bank_yaw_energy_retaining,15.0,-1,mid_arena,nominal,"r[0.50,0.75)","v[6.50,7.00)","ww[1.00,1.10)","m[0.25,0.50)",1,1,1,1.0,1,0,success,none,4.666129860277017,4.666129860277017,0.318597888466269,1.0,0.2517730590291487,0.0,all_success,branch_local_only_no_cross_layout_decision_transfer
"cell|branch=four_fan_branch|fan=four_fan|env=W1_four_fan|family=bank_yaw_energy_retaining|target=15p0|dir=-1|start=mid_arena|latency=nominal|radius=r[0.75,1.00)|speed=v[5.50,6.00)|wing_mean=ww[1.00,1.10)|margin=m[0.50,0.75)",four_fan_branch,four_fan,W1_four_fan,bank_yaw_energy_retaining,15.0,-1,mid_arena,nominal,"r[0.75,1.00)","v[5.50,6.00)","ww[1.00,1.10)","m[0.50,0.75)",1,1,1,1.0,1,0,success,none,1.1446295980261088,1.1446295980261088,0.179828775163588,1.0,0.705958334754995,0.0,all_success,branch_local_only_no_cross_layout_decision_transfer
"cell|branch=four_fan_branch|fan=four_fan|env=W1_four_fan|family=bank_yaw_energy_retaining|target=15p0|dir=-1|start=mid_arena|latency=nominal|radius=r[1.00,1.25)|speed=v[6.00,6.50)|wing_mean=ww[0.60,0.70)|margin=m[0.50,0.75)",four_fan_branch,four_fan,W1_four_fan,bank_yaw_energy_retaining,15.0,-1,mid_arena,nominal,"r[1.00,1.25)","v[6.00,6.50)","ww[0.60,0.70)","m[0.50,0.75)",1,1,1,1.0,1,0,success,none,4.238485729338805,4.238485729338805,0.0383796508545133,1.0,0.5843967194836264,0.0,all_success,branch_local_only_no_cross_layout_decision_transfer
"cell|branch=four_fan_branch|fan=four_fan|env=W1_four_fan|family=bank_yaw_energy_retaining|target=15p0|dir=-1|start=mid_arena|latency=nominal|radius=r[1.50,1.75)|speed=v[6.00,6.50)|wing_mean=ww[0.80,0.90)|margin=m[0.25,0.50)",four_fan_branch,four_fan,W1_four_fan,bank_yaw_energy_retaining,15.0,-1,mid_arena,nominal,"r[1.50,1.75)","v[6.00,6.50)","ww[0.80,0.90)","m[0.25,0.50)",1,1,1,1.0,1,0,success,none,2.026590580344333,2.026590580344333,0.3509405435784209,1.0,0.4585519420293069,0.0,all_success,branch_local_only_no_cross_layout_decision_transfer
"cell|branch=four_fan_branch|fan=four_fan|env=W1_four_fan|family=bank_yaw_energy_retaining|target=15p0|dir=-1|start=mid_arena|latency=nominal|radius=r[1.75,2.00)|speed=v[5.50,6.00)|wing_mean=ww[0.70,0.80)|margin=m[0.00,0.25)",four_fan_branch,four_fan,W1_four_fan,bank_yaw_energy_retaining,15.0,-1,mid_arena,nominal,"r[1.75,2.00)","v[5.50,6.00)","ww[0.70,0.80)","m[0.00,0.25)",1,1,1,1.0,1,0,success,none,1.5105321989545928,1.5105321989545928,0.1446109160181148,1.0,0.1042023524618178,0.0,all_success,branch_local_only_no_cross_layout_decision_transfer
"cell|branch=four_fan_branch|fan=four_fan|env=W1_four_fan|family=bank_yaw_energy_retaining|target=15p0|dir=-1|start=mid_arena|latency=nominal|radius=r[1.75,2.00)|speed=v[6.00,6.50)|wing_mean=ww[0.80,0.90)|margin=m[0.00,0.25)",four_fan_branch,four_fan,W1_four_fan,bank_yaw_energy_retaining,15.0,-1,mid_arena,nominal,"r[1.75,2.00)","v[6.00,6.50)","ww[0.80,0.90)","m[0.00,0.25)",1,1,1,1.0,1,0,success,none,1.289662222188177,1.289662222188177,0.1763964959981181,1.0,0.1976284975989597,0.0,all_success,branch_local_only_no_cross_layout_decision_transfer
"cell|branch=four_fan_branch|fan=four_fan|env=W1_four_fan|family=bank_yaw_energy_retaining|target=15p0|dir=-1|start=mid_arena|latency=nominal|radius=r[2.50,2.75)|speed=v[6.00,6.50)|wing_mean=ww[1.10,1.20)|margin=m[0.50,0.75)",four_fan_branch,four_fan,W1_four_fan,bank_yaw_energy_retaining,15.0,-1,mid_arena,nominal,"r[2.50,2.75)","v[6.00,6.50)","ww[1.10,1.20)","m[0.50,0.75)",1,1,1,1.0,1,0,success,none,0.3844042875703195,0.3844042875703195,0.1396443903480282,1.0,0.527598211976096,0.0,all_success,branch_local_only_no_cross_layout_decision_transfer
"cell|branch=four_fan_branch|fan=four_fan|env=W1_four_fan|family=bank_yaw_energy_retaining|target=15p0|dir=-1|start=mid_arena|latency=nominal|radius=r[2.50,2.75)|speed=v[6.50,7.00)|wing_mean=ww[0.80,0.90)|margin=m[0.00,0.25)",four_fan_branch,four_fan,W1_four_fan,bank_yaw_energy_retaining,15.0,-1,mid_arena,nominal,"r[2.50,2.75)","v[6.50,7.00)","ww[0.80,0.90)","m[0.00,0.25)",1,1,1,1.0,1,0,success,none,0.5589935757817166,0.5589935757817166,0.2882472279269086,1.0,0.0829953361072783,0.0,all_success,branch_local_only_no_cross_layout_decision_transfer
"cell|branch=four_fan_branch|fan=four_fan|env=W1_four_fan|family=bank_yaw_energy_retaining|target=15p0|dir=-1|start=mid_arena|latency=nominal|radius=r[2.50,2.75)|speed=v[6.50,7.00)|wing_mean=ww[1.20,1.30)|margin=m[0.50,0.75)",four_fan_branch,four_fan,W1_four_fan,bank_yaw_energy_retaining,15.0,-1,mid_arena,nominal,"r[2.50,2.75)","v[6.50,7.00)","ww[1.20,1.30)","m[0.50,0.75)",1,1,1,1.0,1,0,success,none,3.4278056804137584,3.4278056804137584,0.1204271422725984,1.0,0.5491711160446702,0.0,all_success,branch_local_only_no_cross_layout_decision_transfer
"cell|branch=four_fan_branch|fan=four_fan|env=W1_four_fan|family=bank_yaw_energy_retaining|target=15p0|dir=-1|start=mid_arena|latency=nominal|radius=r[2.75,3.00)|speed=v[5.50,6.00)|wing_mean=ww[0.90,1.00)|margin=m[0.25,0.50)",four_fan_branch,four_fan,W1_four_fan,bank_yaw_energy_retaining,15.0,-1,mid_arena,nominal,"r[2.75,3.00)","v[5.50,6.00)","ww[0.90,1.00)","m[0.25,0.50)",1,1,1,1.0,1,0,success,none,2.9990862436594004,2.9990862436594004,0.3002572594258472,1.0,0.4450060981240087,0.0,all_success,branch_local_only_no_cross_layout_decision_transfer
"cell|branch=four_fan_branch|fan=four_fan|env=W1_four_fan|family=bank_yaw_energy_retaining|target=15p0|dir=-1|start=mid_arena|latency=nominal|radius=r[2.75,3.00)|speed=v[6.00,6.50)|wing_mean=ww[0.70,0.80)|margin=m[0.25,0.50)",four_fan_branch,four_fan,W1_four_fan,bank_yaw_energy_retaining,15.0,-1,mid_arena,nominal,"r[2.75,3.00)","v[6.00,6.50)","ww[0.70,0.80)","m[0.25,0.50)",1,1,1,1.0,1,0,success,none,1.0084163436850506,1.0084163436850506,0.1364670436839019,1.0,0.3980511934506614,0.0,all_success,branch_local_only_no_cross_layout_decision_transfer
"cell|branch=four_fan_branch|fan=four_fan|env=W1_four_fan|family=bank_yaw_energy_retaining|target=15p0|dir=-1|start=mid_arena|latency=nominal|radius=r[3.00,3.25)|speed=v[5.50,6.00)|wing_mean=ww[0.50,0.60)|margin=m[0.50,0.75)",four_fan_branch,four_fan,W1_four_fan,bank_yaw_energy_retaining,15.0,-1,mid_arena,nominal,"r[3.00,3.25)","v[5.50,6.00)","ww[0.50,0.60)","m[0.50,0.75)",1,1,1,1.0,1,0,success,none,1.0220277408638,1.0220277408638,0.0022999014367264,1.0,0.572284725559002,0.0,all_success,branch_local_only_no_cross_layout_decision_transfer
"cell|branch=four_fan_branch|fan=four_fan|env=W1_four_fan|family=bank_yaw_energy_retaining|target=15p0|dir=-1|start=mid_arena|latency=nominal|radius=r[3.00,3.25)|speed=v[5.50,6.00)|wing_mean=ww[0.60,0.70)|margin=m[0.75,1.00)",four_fan_branch,four_fan,W1_four_fan,bank_yaw_energy_retaining,15.0,-1,mid_arena,nominal,"r[3.00,3.25)","v[5.50,6.00)","ww[0.60,0.70)","m[0.75,1.00)",1,1,1,1.0,1,0,success,none,3.020652871786293,3.020652871786293,0.2476260343540817,1.0,0.948908845096854,0.0,all_success,branch_local_only_no_cross_layout_decision_transfer
"cell|branch=four_fan_branch|fan=four_fan|env=W1_four_fan|family=bank_yaw_energy_retaining|target=15p0|dir=-1|start=mid_arena|latency=nominal|radius=r[3.25,3.50)|speed=v[6.50,7.00)|wing_mean=ww[0.90,1.00)|margin=m[0.00,0.25)",four_fan_branch,four_fan,W1_four_fan,bank_yaw_energy_retaining,15.0,-1,mid_arena,nominal,"r[3.25,3.50)","v[6.50,7.00)","ww[0.90,1.00)","m[0.00,0.25)",1,1,1,1.0,1,0,success,none,2.5145591550045765,2.5145591550045765,0.2641681601654362,1.0,0.2132902857427749,0.0,all_success,branch_local_only_no_cross_layout_decision_transfer
"cell|branch=four_fan_branch|fan=four_fan|env=W1_four_fan|family=bank_yaw_energy_retaining|target=15p0|dir=-1|start=random_stress|latency=nominal|radius=r[0.50,0.75)|speed=v[7.00,7.50)|wing_mean=ww[1.00,1.10)|margin=m[0.00,0.25)",four_fan_branch,four_fan,W1_four_fan,bank_yaw_energy_retaining,15.0,-1,random_stress,nominal,"r[0.50,0.75)","v[7.00,7.50)","ww[1.00,1.10)","m[0.00,0.25)",1,1,1,1.0,1,0,success,none,2.508941440492876,2.508941440492876,0.1566825375810214,1.0,0.0659546775136359,0.0,all_success,branch_local_only_no_cross_layout_decision_transfer
"cell|branch=four_fan_branch|fan=four_fan|env=W1_four_fan|family=bank_yaw_energy_retaining|target=15p0|dir=-1|start=random_stress|latency=nominal|radius=r[1.00,1.25)|speed=v[7.00,7.50)|wing_mean=ww[0.60,0.70)|margin=m[0.00,0.25)",four_fan_branch,four_fan,W1_four_fan,bank_yaw_energy_retaining,15.0,-1,random_stress,nominal,"r[1.00,1.25)","v[7.00,7.50)","ww[0.60,0.70)","m[0.00,0.25)",1,1,1,1.0,1,0,success,none,3.097652235197195,3.097652235197195,0.0302876716488231,1.0,0.1858875223932234,0.0,all_success,branch_local_only_no_cross_layout_decision_transfer
"cell|branch=four_fan_branch|fan=four_fan|env=W1_four_fan|family=bank_yaw_energy_retaining|target=15p0|dir=-1|start=random_stress|latency=nominal|radius=r[2.75,3.00)|speed=v[5.00,5.50)|wing_mean=ww[0.40,0.50)|margin=m[0.25,0.50)",four_fan_branch,four_fan,W1_four_fan,bank_yaw_energy_retaining,15.0,-1,random_stress,nominal,"r[2.75,3.00)","v[5.00,5.50)","ww[0.40,0.50)","m[0.25,0.50)",1,1,1,1.0,1,0,success,none,2.0850170895572404,2.0850170895572404,-0.0465612178738386,1.0,0.4429845843796807,0.0,all_success,branch_local_only_no_cross_layout_decision_transfer
"cell|branch=four_fan_branch|fan=four_fan|env=W1_four_fan|family=bank_yaw_energy_retaining|target=15p0|dir=-1|start=random_stress|latency=nominal|radius=r[3.25,3.50)|speed=v[6.50,7.00)|wing_mean=ww[0.30,0.40)|margin=m[0.25,0.50)",four_fan_branch,four_fan,W1_four_fan,bank_yaw_energy_retaining,15.0,-1,random_stress,nominal,"r[3.25,3.50)","v[6.50,7.00)","ww[0.30,0.40)","m[0.25,0.50)",1,1,1,1.0,1,0,success,none,1.707121581613876,1.707121581613876,0.006053205083722,1.0,0.3869844519396404,0.0,all_success,branch_local_only_no_cross_layout_decision_transfer
"cell|branch=four_fan_branch|fan=four_fan|env=W1_four_fan|family=bank_yaw_energy_retaining|target=15p0|dir=-1|start=random_stress|latency=nominal|radius=r[3.50,3.75)|speed=v[6.50,7.00)|wing_mean=ww[1.30,1.40)|margin=m[0.00,0.25)",four_fan_branch,four_fan,W1_four_fan,bank_yaw_energy_retaining,15.0,-1,random_stress,nominal,"r[3.50,3.75)","v[6.50,7.00)","ww[1.30,1.40)","m[0.00,0.25)",1,1,1,1.0,1,0,success,none,0.7766880766905189,0.7766880766905189,0.1827920152512718,1.0,0.08766348777669,0.0,all_success,branch_local_only_no_cross_layout_decision_transfer
"cell|branch=four_fan_branch|fan=four_fan|env=W1_four_fan|family=bank_yaw_energy_retaining|target=15p0|dir=-1|start=random_stress|latency=nominal|radius=r[3.75,4.00)|speed=v[4.50,5.00)|wing_mean=ww[1.00,1.10)|margin=m[0.00,0.25)",four_fan_branch,four_fan,W1_four_fan,bank_yaw_energy_retaining,15.0,-1,random_stress,nominal,"r[3.75,4.00)","v[4.50,5.00)","ww[1.00,1.10)","m[0.00,0.25)",1,1,1,1.0,1,0,success,none,1.818288803847807,1.818288803847807,0.0450369328170312,1.0,0.1538688504531897,0.0,all_success,branch_local_only_no_cross_layout_decision_transfer
"cell|branch=four_fan_branch|fan=four_fan|env=W1_four_fan|family=bank_yaw_energy_retaining|target=15p0|dir=-1|start=random_stress|latency=nominal|radius=r[3.75,4.00)|speed=v[6.00,6.50)|wing_mean=ww[0.20,0.30)|margin=m[0.25,0.50)",four_fan_branch,four_fan,W1_four_fan,bank_yaw_energy_retaining,15.0,-1,random_stress,nominal,"r[3.75,4.00)","v[6.00,6.50)","ww[0.20,0.30)","m[0.25,0.50)",1,1,1,1.0,1,0,success,none,3.248380984609824,3.248380984609824,-0.1115027737964671,1.0,0.2793142942373752,0.0,all_success,branch_local_only_no_cross_layout_decision_transfer
"cell|branch=four_fan_branch|fan=four_fan|env=W1_four_fan|family=bank_yaw_energy_retaining|target=15p0|dir=-1|start=random_stress|latency=nominal|radius=r[3.75,4.00)|speed=v[6.50,7.00)|wing_mean=ww[0.30,0.40)|margin=m[0.00,0.25)",four_fan_branch,four_fan,W1_four_fan,bank_yaw_energy_retaining,15.0,-1,random_stress,nominal,"r[3.75,4.00)","v[6.50,7.00)","ww[0.30,0.40)","m[0.00,0.25)",1,1,1,1.0,1,0,success,none,0.8466838912562267,0.8466838912562267,-0.0109594467342457,1.0,0.1204727717222321,0.0,all_success,branch_local_only_no_cross_layout_decision_transfer
"cell|branch=four_fan_branch|fan=four_fan|env=W1_four_fan|family=bank_yaw_energy_retaining|target=15p0|dir=-1|start=random_stress|latency=nominal|radius=r[3.75,4.00)|speed=v[6.50,7.00)|wing_mean=ww[0.70,0.80)|margin=m[0.00,0.25)",four_fan_branch,four_fan,W1_four_fan,bank_yaw_energy_retaining,15.0,-1,random_stress,nominal,"r[3.75,4.00)","v[6.50,7.00)","ww[0.70,0.80)","m[0.00,0.25)",1,1,1,1.0,1,0,success,none,4.562272902389367,4.562272902389367,0.0841781809142601,1.0,0.0475729284833619,0.0,all_success,branch_local_only_no_cross_layout_decision_transfer
"cell|branch=four_fan_branch|fan=four_fan|env=W1_four_fan|family=bank_yaw_energy_retaining|target=15p0|dir=-1|start=random_stress|latency=nominal|radius=r[4.50,4.75)|speed=v[5.00,5.50)|wing_mean=ww[0.30,0.40)|margin=m[0.00,0.25)",four_fan_branch,four_fan,W1_four_fan,bank_yaw_energy_retaining,15.0,-1,random_stress,nominal,"r[4.50,4.75)","v[5.00,5.50)","ww[0.30,0.40)","m[0.00,0.25)",1,1,1,1.0,1,0,success,none,4.665534669023444,4.665534669023444,-0.1488743418712244,1.0,0.0188106396780334,0.0,all_success,branch_local_only_no_cross_layout_decision_transfer
"cell|branch=four_fan_branch|fan=four_fan|env=W1_four_fan|family=bank_yaw_energy_retaining|target=15p0|dir=1|start=favourable|latency=nominal|radius=r[0.50,0.75)|speed=v[6.50,7.00)|wing_mean=ww[0.90,1.00)|margin=m[0.00,0.25)",four_fan_branch,four_fan,W1_four_fan,bank_yaw_energy_retaining,15.0,1,favourable,nominal,"r[0.50,0.75)","v[6.50,7.00)","ww[0.90,1.00)","m[0.00,0.25)",2,2,2,1.0,2,0,success,none,3.7498236174845037,3.7498236174845037,-0.010198042940908949,1.0,0.0412307723241838,0.0,all_success,branch_local_only_no_cross_layout_decision_transfer
"cell|branch=four_fan_branch|fan=four_fan|env=W1_four_fan|family=bank_yaw_energy_retaining|target=15p0|dir=1|start=favourable|latency=nominal|radius=r[0.75,1.00)|speed=v[6.00,6.50)|wing_mean=ww[0.70,0.80)|margin=m[0.75,1.00)",four_fan_branch,four_fan,W1_four_fan,bank_yaw_energy_retaining,15.0,1,favourable,nominal,"r[0.75,1.00)","v[6.00,6.50)","ww[0.70,0.80)","m[0.75,1.00)",1,1,1,1.0,1,0,success,none,4.416102564652917,4.416102564652917,0.1618424839727312,1.0,0.8117735186226699,0.0,all_success,branch_local_only_no_cross_layout_decision_transfer
"cell|branch=four_fan_branch|fan=four_fan|env=W1_four_fan|family=bank_yaw_energy_retaining|target=15p0|dir=1|start=favourable|latency=nominal|radius=r[1.00,1.25)|speed=v[6.00,6.50)|wing_mean=ww[0.40,0.50)|margin=m[0.50,0.75)",four_fan_branch,four_fan,W1_four_fan,bank_yaw_energy_retaining,15.0,1,favourable,nominal,"r[1.00,1.25)","v[6.00,6.50)","ww[0.40,0.50)","m[0.50,0.75)",1,1,1,1.0,1,0,success,none,0.0991946735897109,0.0991946735897109,0.1206749774983304,1.0,0.7194083318930184,0.0,all_success,branch_local_only_no_cross_layout_decision_transfer
"cell|branch=four_fan_branch|fan=four_fan|env=W1_four_fan|family=bank_yaw_energy_retaining|target=15p0|dir=1|start=favourable|latency=nominal|radius=r[1.25,1.50)|speed=v[6.00,6.50)|wing_mean=ww[0.40,0.50)|margin=m[0.50,0.75)",four_fan_branch,four_fan,W1_four_fan,bank_yaw_energy_retaining,15.0,1,favourable,nominal,"r[1.25,1.50)","v[6.00,6.50)","ww[0.40,0.50)","m[0.50,0.75)",1,1,1,1.0,1,0,success,none,4.947748461655971,4.947748461655971,0.0907309109588387,1.0,0.6200180800493973,0.0,all_success,branch_local_only_no_cross_layout_decision_transfer
"cell|branch=four_fan_branch|fan=four_fan|env=W1_four_fan|family=bank_yaw_energy_retaining|target=15p0|dir=1|start=favourable|latency=nominal|radius=r[1.25,1.50)|speed=v[6.50,7.00)|wing_mean=ww[0.30,0.40)|margin=m[0.50,0.75)",four_fan_branch,four_fan,W1_four_fan,bank_yaw_energy_retaining,15.0,1,favourable,nominal,"r[1.25,1.50)","v[6.50,7.00)","ww[0.30,0.40)","m[0.50,0.75)",1,1,1,1.0,1,0,success,none,3.756088130871946,3.756088130871946,0.1712793514514068,1.0,0.6511417442386094,0.0,all_success,branch_local_only_no_cross_layout_decision_transfer
"cell|branch=four_fan_branch|fan=four_fan|env=W1_four_fan|family=bank_yaw_energy_retaining|target=15p0|dir=1|start=favourable|latency=nominal|radius=r[1.50,1.75)|speed=v[6.00,6.50)|wing_mean=ww[0.60,0.70)|margin=m[0.25,0.50)",four_fan_branch,four_fan,W1_four_fan,bank_yaw_energy_retaining,15.0,1,favourable,nominal,"r[1.50,1.75)","v[6.00,6.50)","ww[0.60,0.70)","m[0.25,0.50)",1,1,1,1.0,1,0,success,none,4.183774684657992,4.183774684657992,0.0679000410595467,1.0,0.3348408165438652,0.0,all_success,branch_local_only_no_cross_layout_decision_transfer
"cell|branch=four_fan_branch|fan=four_fan|env=W1_four_fan|family=bank_yaw_energy_retaining|target=15p0|dir=1|start=favourable|latency=nominal|radius=r[1.75,2.00)|speed=v[6.50,7.00)|wing_mean=ww[0.90,1.00)|margin=m[0.00,0.25)",four_fan_branch,four_fan,W1_four_fan,bank_yaw_energy_retaining,15.0,1,favourable,nominal,"r[1.75,2.00)","v[6.50,7.00)","ww[0.90,1.00)","m[0.00,0.25)",1,1,1,1.0,1,0,success,none,3.623896725482094,3.623896725482094,0.0259372696904396,1.0,0.0201259183270403,0.0,all_success,branch_local_only_no_cross_layout_decision_transfer
"cell|branch=four_fan_branch|fan=four_fan|env=W1_four_fan|family=bank_yaw_energy_retaining|target=15p0|dir=1|start=favourable|latency=nominal|radius=r[2.00,2.25)|speed=v[6.00,6.50)|wing_mean=ww[0.90,1.00)|margin=m[0.25,0.50)",four_fan_branch,four_fan,W1_four_fan,bank_yaw_energy_retaining,15.0,1,favourable,nominal,"r[2.00,2.25)","v[6.00,6.50)","ww[0.90,1.00)","m[0.25,0.50)",1,1,1,1.0,1,0,success,none,1.9923987859249688,1.9923987859249688,0.1934307469913716,1.0,0.4330659353039179,0.0,all_success,branch_local_only_no_cross_layout_decision_transfer
"cell|branch=four_fan_branch|fan=four_fan|env=W1_four_fan|family=bank_yaw_energy_retaining|target=15p0|dir=1|start=favourable|latency=nominal|radius=r[2.75,3.00)|speed=v[6.00,6.50)|wing_mean=ww[0.80,0.90)|margin=m[0.00,0.25)",four_fan_branch,four_fan,W1_four_fan,bank_yaw_energy_retaining,15.0,1,favourable,nominal,"r[2.75,3.00)","v[6.00,6.50)","ww[0.80,0.90)","m[0.00,0.25)",1,1,1,1.0,1,0,success,none,4.4181558812022494,4.4181558812022494,0.0660450957013925,1.0,0.1710881253645393,0.0,all_success,branch_local_only_no_cross_layout_decision_transfer
"cell|branch=four_fan_branch|fan=four_fan|env=W1_four_fan|family=bank_yaw_energy_retaining|target=15p0|dir=1|start=favourable|latency=nominal|radius=r[2.75,3.00)|speed=v[6.50,7.00)|wing_mean=ww[0.60,0.70)|margin=m[0.00,0.25)",four_fan_branch,four_fan,W1_four_fan,bank_yaw_energy_retaining,15.0,1,favourable,nominal,"r[2.75,3.00)","v[6.50,7.00)","ww[0.60,0.70)","m[0.00,0.25)",1,1,1,1.0,1,0,success,none,3.566534738683078,3.566534738683078,0.1276332160902491,1.0,0.1084916588552822,0.0,all_success,branch_local_only_no_cross_layout_decision_transfer
"cell|branch=four_fan_branch|fan=four_fan|env=W1_four_fan|family=bank_yaw_energy_retaining|target=15p0|dir=1|start=favourable|latency=nominal|radius=r[2.75,3.00)|speed=v[6.50,7.00)|wing_mean=ww[0.70,0.80)|margin=m[0.00,0.25)",four_fan_branch,four_fan,W1_four_fan,bank_yaw_energy_retaining,15.0,1,favourable,nominal,"r[2.75,3.00)","v[6.50,7.00)","ww[0.70,0.80)","m[0.00,0.25)",1,1,1,1.0,1,0,success,none,4.850265025215542,4.850265025215542,0.0091725197016581,1.0,0.13764838473893,0.0,all_success,branch_local_only_no_cross_layout_decision_transfer
"cell|branch=four_fan_branch|fan=four_fan|env=W1_four_fan|family=bank_yaw_energy_retaining|target=15p0|dir=1|start=favourable|latency=nominal|radius=r[3.00,3.25)|speed=v[6.00,6.50)|wing_mean=ww[0.70,0.80)|margin=m[0.50,0.75)",four_fan_branch,four_fan,W1_four_fan,bank_yaw_energy_retaining,15.0,1,favourable,nominal,"r[3.00,3.25)","v[6.00,6.50)","ww[0.70,0.80)","m[0.50,0.75)",1,1,1,1.0,1,0,success,none,4.984910183929069,4.984910183929069,0.3578792279644101,1.0,0.6667871322608863,0.0,all_success,branch_local_only_no_cross_layout_decision_transfer
"cell|branch=four_fan_branch|fan=four_fan|env=W1_four_fan|family=bank_yaw_energy_retaining|target=15p0|dir=1|start=favourable|latency=nominal|radius=r[3.00,3.25)|speed=v[6.50,7.00)|wing_mean=ww[0.50,0.60)|margin=m[0.00,0.25)",four_fan_branch,four_fan,W1_four_fan,bank_yaw_energy_retaining,15.0,1,favourable,nominal,"r[3.00,3.25)","v[6.50,7.00)","ww[0.50,0.60)","m[0.00,0.25)",1,1,1,1.0,1,0,success,none,3.139420823655991,3.139420823655991,0.0284371905123488,1.0,0.0022130224100243,0.0,all_success,branch_local_only_no_cross_layout_decision_transfer
"cell|branch=four_fan_branch|fan=four_fan|env=W1_four_fan|family=bank_yaw_energy_retaining|target=15p0|dir=1|start=favourable|latency=nominal|radius=r[3.00,3.25)|speed=v[6.50,7.00)|wing_mean=ww[0.60,0.70)|margin=m[0.50,0.75)",four_fan_branch,four_fan,W1_four_fan,bank_yaw_energy_retaining,15.0,1,favourable,nominal,"r[3.00,3.25)","v[6.50,7.00)","ww[0.60,0.70)","m[0.50,0.75)",1,1,1,1.0,1,0,success,none,3.577630315340869,3.577630315340869,0.0597162162775957,1.0,0.7425889305619231,0.0,all_success,branch_local_only_no_cross_layout_decision_transfer
"cell|branch=four_fan_branch|fan=four_fan|env=W1_four_fan|family=bank_yaw_energy_retaining|target=15p0|dir=1|start=favourable|latency=nominal|radius=r[3.00,3.25)|speed=v[6.50,7.00)|wing_mean=ww[0.70,0.80)|margin=m[0.25,0.50)",four_fan_branch,four_fan,W1_four_fan,bank_yaw_energy_retaining,15.0,1,favourable,nominal,"r[3.00,3.25)","v[6.50,7.00)","ww[0.70,0.80)","m[0.25,0.50)",1,1,1,1.0,1,0,success,none,2.6107818798128197,2.6107818798128197,-0.0255287357987534,1.0,0.2905961371864034,0.0,all_success,branch_local_only_no_cross_layout_decision_transfer
"cell|branch=four_fan_branch|fan=four_fan|env=W1_four_fan|family=bank_yaw_energy_retaining|target=15p0|dir=1|start=favourable|latency=nominal|radius=r[3.00,3.25)|speed=v[6.50,7.00)|wing_mean=ww[0.70,0.80)|margin=m[0.50,0.75)",four_fan_branch,four_fan,W1_four_fan,bank_yaw_energy_retaining,15.0,1,favourable,nominal,"r[3.00,3.25)","v[6.50,7.00)","ww[0.70,0.80)","m[0.50,0.75)",1,1,1,1.0,1,0,success,none,2.023861011416191,2.023861011416191,0.0942263968578451,1.0,0.6450974424072076,0.0,all_success,branch_local_only_no_cross_layout_decision_transfer
"cell|branch=four_fan_branch|fan=four_fan|env=W1_four_fan|family=bank_yaw_energy_retaining|target=15p0|dir=1|start=favourable|latency=nominal|radius=r[3.00,3.25)|speed=v[6.50,7.00)|wing_mean=ww[0.90,1.00)|margin=m[0.25,0.50)",four_fan_branch,four_fan,W1_four_fan,bank_yaw_energy_retaining,15.0,1,favourable,nominal,"r[3.00,3.25)","v[6.50,7.00)","ww[0.90,1.00)","m[0.25,0.50)",1,1,1,1.0,1,0,success,none,3.4774109080349227,3.4774109080349227,0.0716506039919293,1.0,0.4887107960727848,0.0,all_success,branch_local_only_no_cross_layout_decision_transfer
"cell|branch=four_fan_branch|fan=four_fan|env=W1_four_fan|family=bank_yaw_energy_retaining|target=15p0|dir=1|start=favourable|latency=nominal|radius=r[3.25,3.50)|speed=v[6.00,6.50)|wing_mean=ww[0.40,0.50)|margin=m[0.50,0.75)",four_fan_branch,four_fan,W1_four_fan,bank_yaw_energy_retaining,15.0,1,favourable,nominal,"r[3.25,3.50)","v[6.00,6.50)","ww[0.40,0.50)","m[0.50,0.75)",1,1,1,1.0,1,0,success,none,2.2683795924903034,2.2683795924903034,0.0970052376147427,1.0,0.634928467350985,0.0,all_success,branch_local_only_no_cross_layout_decision_transfer
"cell|branch=four_fan_branch|fan=four_fan|env=W1_four_fan|family=bank_yaw_energy_retaining|target=15p0|dir=1|start=favourable|latency=nominal|radius=r[3.25,3.50)|speed=v[6.00,6.50)|wing_mean=ww[0.50,0.60)|margin=m[0.50,0.75)",four_fan_branch,four_fan,W1_four_fan,bank_yaw_energy_retaining,15.0,1,favourable,nominal,"r[3.25,3.50)","v[6.00,6.50)","ww[0.50,0.60)","m[0.50,0.75)",1,1,1,1.0,1,0,success,none,0.2224792318206141,0.2224792318206141,0.0416950715155568,1.0,0.6483547520161581,0.0,all_success,branch_local_only_no_cross_layout_decision_transfer
"cell|branch=four_fan_branch|fan=four_fan|env=W1_four_fan|family=bank_yaw_energy_retaining|target=15p0|dir=1|start=favourable|latency=nominal|radius=r[3.25,3.50)|speed=v[6.50,7.00)|wing_mean=ww[0.30,0.40)|margin=m[0.50,0.75)",four_fan_branch,four_fan,W1_four_fan,bank_yaw_energy_retaining,15.0,1,favourable,nominal,"r[3.25,3.50)","v[6.50,7.00)","ww[0.30,0.40)","m[0.50,0.75)",1,1,1,1.0,1,0,success,none,2.1490600768125585,2.1490600768125585,0.306999203455538,1.0,0.6007057506225006,0.0,all_success,branch_local_only_no_cross_layout_decision_transfer
"cell|branch=four_fan_branch|fan=four_fan|env=W1_four_fan|family=bank_yaw_energy_retaining|target=15p0|dir=1|start=favourable|latency=nominal|radius=r[3.25,3.50)|speed=v[6.50,7.00)|wing_mean=ww[0.40,0.50)|margin=m[0.25,0.50)",four_fan_branch,four_fan,W1_four_fan,bank_yaw_energy_retaining,15.0,1,favourable,nominal,"r[3.25,3.50)","v[6.50,7.00)","ww[0.40,0.50)","m[0.25,0.50)",1,1,1,1.0,1,0,success,none,0.8988041287542661,0.8988041287542661,0.032560045706619,1.0,0.4636893582457029,0.0,all_success,branch_local_only_no_cross_layout_decision_transfer
"cell|branch=four_fan_branch|fan=four_fan|env=W1_four_fan|family=bank_yaw_energy_retaining|target=15p0|dir=1|start=favourable|latency=nominal|radius=r[3.25,3.50)|speed=v[6.50,7.00)|wing_mean=ww[0.50,0.60)|margin=m[0.50,0.75)",four_fan_branch,four_fan,W1_four_fan,bank_yaw_energy_retaining,15.0,1,favourable,nominal,"r[3.25,3.50)","v[6.50,7.00)","ww[0.50,0.60)","m[0.50,0.75)",1,1,1,1.0,1,0,success,none,2.1587608758524475,2.1587608758524475,0.3457318075213638,1.0,0.6519346566439728,0.0,all_success,branch_local_only_no_cross_layout_decision_transfer
"cell|branch=four_fan_branch|fan=four_fan|env=W1_four_fan|family=bank_yaw_energy_retaining|target=15p0|dir=1|start=favourable|latency=nominal|radius=r[3.50,3.75)|speed=v[6.00,6.50)|wing_mean=ww[0.40,0.50)|margin=m[0.75,1.00)",four_fan_branch,four_fan,W1_four_fan,bank_yaw_energy_retaining,15.0,1,favourable,nominal,"r[3.50,3.75)","v[6.00,6.50)","ww[0.40,0.50)","m[0.75,1.00)",1,1,1,1.0,1,0,success,none,3.703461300517205,3.703461300517205,0.1272290394675543,1.0,0.8668577233937291,0.0,all_success,branch_local_only_no_cross_layout_decision_transfer
"cell|branch=four_fan_branch|fan=four_fan|env=W1_four_fan|family=bank_yaw_energy_retaining|target=15p0|dir=1|start=favourable|latency=nominal|radius=r[3.50,3.75)|speed=v[6.00,6.50)|wing_mean=ww[0.50,0.60)|margin=m[0.75,1.00)",four_fan_branch,four_fan,W1_four_fan,bank_yaw_energy_retaining,15.0,1,favourable,nominal,"r[3.50,3.75)","v[6.00,6.50)","ww[0.50,0.60)","m[0.75,1.00)",1,1,1,1.0,1,0,success,none,1.158357864043886,1.158357864043886,0.0322921247179346,1.0,0.8563441410234018,0.0,all_success,branch_local_only_no_cross_layout_decision_transfer
"cell|branch=four_fan_branch|fan=four_fan|env=W1_four_fan|family=bank_yaw_energy_retaining|target=15p0|dir=1|start=favourable|latency=nominal|radius=r[3.50,3.75)|speed=v[6.00,6.50)|wing_mean=ww[0.70,0.80)|margin=m[0.50,0.75)",four_fan_branch,four_fan,W1_four_fan,bank_yaw_energy_retaining,15.0,1,favourable,nominal,"r[3.50,3.75)","v[6.00,6.50)","ww[0.70,0.80)","m[0.50,0.75)",1,1,1,1.0,1,0,success,none,2.882806594463407,2.882806594463407,0.2548475455767942,1.0,0.5129193775802552,0.0,all_success,branch_local_only_no_cross_layout_decision_transfer
"cell|branch=four_fan_branch|fan=four_fan|env=W1_four_fan|family=bank_yaw_energy_retaining|target=15p0|dir=1|start=favourable|latency=nominal|radius=r[3.75,4.00)|speed=v[6.50,7.00)|wing_mean=ww[0.40,0.50)|margin=m[0.50,0.75)",four_fan_branch,four_fan,W1_four_fan,bank_yaw_energy_retaining,15.0,1,favourable,nominal,"r[3.75,4.00)","v[6.50,7.00)","ww[0.40,0.50)","m[0.50,0.75)",1,1,1,1.0,1,0,success,none,2.371127791989757,2.371127791989757,0.2379762490358281,1.0,0.5557767386532717,0.0,all_success,branch_local_only_no_cross_layout_decision_transfer
"cell|branch=four_fan_branch|fan=four_fan|env=W1_four_fan|family=bank_yaw_energy_retaining|target=15p0|dir=1|start=lift_sector|latency=nominal|radius=r[0.00,0.25)|speed=v[5.00,5.50)|wing_mean=ww[1.10,1.20)|margin=m[0.00,0.25)",four_fan_branch,four_fan,W1_four_fan,bank_yaw_energy_retaining,15.0,1,lift_sector,nominal,"r[0.00,0.25)","v[5.00,5.50)","ww[1.10,1.20)","m[0.00,0.25)",1,1,1,1.0,1,0,success,none,2.4885262976828653,2.4885262976828653,0.2155165254851558,1.0,0.167836148341534,0.0,all_success,branch_local_only_no_cross_layout_decision_transfer
"cell|branch=four_fan_branch|fan=four_fan|env=W1_four_fan|family=bank_yaw_energy_retaining|target=15p0|dir=1|start=lift_sector|latency=nominal|radius=r[0.00,0.25)|speed=v[5.00,5.50)|wing_mean=ww[1.50,1.60)|margin=m[0.50,0.75)",four_fan_branch,four_fan,W1_four_fan,bank_yaw_energy_retaining,15.0,1,lift_sector,nominal,"r[0.00,0.25)","v[5.00,5.50)","ww[1.50,1.60)","m[0.50,0.75)",1,1,1,1.0,1,0,success,none,0.7592512272403837,0.7592512272403837,0.1774392947973733,1.0,0.6460473011480798,0.0,all_success,branch_local_only_no_cross_layout_decision_transfer
"cell|branch=four_fan_branch|fan=four_fan|env=W1_four_fan|family=bank_yaw_energy_retaining|target=15p0|dir=1|start=lift_sector|latency=nominal|radius=r[0.00,0.25)|speed=v[5.50,6.00)|wing_mean=ww[1.20,1.30)|margin=m[0.25,0.50)",four_fan_branch,four_fan,W1_four_fan,bank_yaw_energy_retaining,15.0,1,lift_sector,nominal,"r[0.00,0.25)","v[5.50,6.00)","ww[1.20,1.30)","m[0.25,0.50)",1,1,1,1.0,1,0,success,none,4.339924769022971,4.339924769022971,0.0201885069628851,1.0,0.2787926323874439,0.0,all_success,branch_local_only_no_cross_layout_decision_transfer
"cell|branch=four_fan_branch|fan=four_fan|env=W1_four_fan|family=bank_yaw_energy_retaining|target=15p0|dir=1|start=lift_sector|latency=nominal|radius=r[0.00,0.25)|speed=v[5.50,6.00)|wing_mean=ww[1.90,2.00)|margin=m[0.50,0.75)",four_fan_branch,four_fan,W1_four_fan,bank_yaw_energy_retaining,15.0,1,lift_sector,nominal,"r[0.00,0.25)","v[5.50,6.00)","ww[1.90,2.00)","m[0.50,0.75)",1,1,1,1.0,1,0,success,none,1.5684915854569963,1.5684915854569963,0.1528537426719718,1.0,0.5038848728768961,0.0,all_success,branch_local_only_no_cross_layout_decision_transfer
"cell|branch=four_fan_branch|fan=four_fan|env=W1_four_fan|family=bank_yaw_energy_retaining|target=15p0|dir=1|start=lift_sector|latency=nominal|radius=r[0.25,0.50)|speed=v[5.00,5.50)|wing_mean=ww[1.10,1.20)|margin=m[0.25,0.50)",four_fan_branch,four_fan,W1_four_fan,bank_yaw_energy_retaining,15.0,1,lift_sector,nominal,"r[0.25,0.50)","v[5.00,5.50)","ww[1.10,1.20)","m[0.25,0.50)",1,1,1,1.0,1,0,success,none,4.591459130432938,4.591459130432938,0.3196505928728839,1.0,0.3967666099633504,0.0,all_success,branch_local_only_no_cross_layout_decision_transfer
"cell|branch=four_fan_branch|fan=four_fan|env=W1_four_fan|family=bank_yaw_energy_retaining|target=15p0|dir=1|start=lift_sector|latency=nominal|radius=r[0.25,0.50)|speed=v[5.00,5.50)|wing_mean=ww[1.80,1.90)|margin=m[0.25,0.50)",four_fan_branch,four_fan,W1_four_fan,bank_yaw_energy_retaining,15.0,1,lift_sector,nominal,"r[0.25,0.50)","v[5.00,5.50)","ww[1.80,1.90)","m[0.25,0.50)",1,1,1,1.0,1,0,success,none,2.523053511196558,2.523053511196558,0.1259895777691575,1.0,0.4667415629206051,0.0,all_success,branch_local_only_no_cross_layout_decision_transfer
"cell|branch=four_fan_branch|fan=four_fan|env=W1_four_fan|family=bank_yaw_energy_retaining|target=15p0|dir=1|start=lift_sector|latency=nominal|radius=r[0.25,0.50)|speed=v[5.50,6.00)|wing_mean=ww[1.00,1.10)|margin=m[0.50,0.75)",four_fan_branch,four_fan,W1_four_fan,bank_yaw_energy_retaining,15.0,1,lift_sector,nominal,"r[0.25,0.50)","v[5.50,6.00)","ww[1.00,1.10)","m[0.50,0.75)",2,2,2,1.0,2,0,success,none,3.0598267032050757,3.0598267032050757,0.05128347686464615,1.0,0.5335494207829502,0.0,all_success,branch_local_only_no_cross_layout_decision_transfer
"cell|branch=four_fan_branch|fan=four_fan|env=W1_four_fan|family=bank_yaw_energy_retaining|target=15p0|dir=1|start=lift_sector|latency=nominal|radius=r[0.25,0.50)|speed=v[5.50,6.00)|wing_mean=ww[1.30,1.40)|margin=m[0.25,0.50)",four_fan_branch,four_fan,W1_four_fan,bank_yaw_energy_retaining,15.0,1,lift_sector,nominal,"r[0.25,0.50)","v[5.50,6.00)","ww[1.30,1.40)","m[0.25,0.50)",1,1,1,1.0,1,0,success,none,4.390895173850453,4.390895173850453,0.2050195089609348,1.0,0.4430067873797783,0.0,all_success,branch_local_only_no_cross_layout_decision_transfer
"cell|branch=four_fan_branch|fan=four_fan|env=W1_four_fan|family=bank_yaw_energy_retaining|target=15p0|dir=1|start=lift_sector|latency=nominal|radius=r[0.25,0.50)|speed=v[5.50,6.00)|wing_mean=ww[1.30,1.40)|margin=m[0.75,1.00)",four_fan_branch,four_fan,W1_four_fan,bank_yaw_energy_retaining,15.0,1,lift_sector,nominal,"r[0.25,0.50)","v[5.50,6.00)","ww[1.30,1.40)","m[0.75,1.00)",1,1,1,1.0,1,0,success,none,3.2071468896641377,3.2071468896641377,0.1699734282400813,1.0,0.7580028253794683,0.0,all_success,branch_local_only_no_cross_layout_decision_transfer
"cell|branch=four_fan_branch|fan=four_fan|env=W1_four_fan|family=bank_yaw_energy_retaining|target=15p0|dir=1|start=lift_sector|latency=nominal|radius=r[0.25,0.50)|speed=v[5.50,6.00)|wing_mean=ww[1.40,1.50)|margin=m[0.50,0.75)",four_fan_branch,four_fan,W1_four_fan,bank_yaw_energy_retaining,15.0,1,lift_sector,nominal,"r[0.25,0.50)","v[5.50,6.00)","ww[1.40,1.50)","m[0.50,0.75)",1,1,1,1.0,1,0,success,none,3.3087455550340934,3.3087455550340934,0.0933694078547051,1.0,0.5960796242546538,0.0,all_success,branch_local_only_no_cross_layout_decision_transfer
"cell|branch=four_fan_branch|fan=four_fan|env=W1_four_fan|family=bank_yaw_energy_retaining|target=15p0|dir=1|start=lift_sector|latency=nominal|radius=r[0.25,0.50)|speed=v[6.00,6.50)|wing_mean=ww[1.10,1.20)|margin=m[0.00,0.25)",four_fan_branch,four_fan,W1_four_fan,bank_yaw_energy_retaining,15.0,1,lift_sector,nominal,"r[0.25,0.50)","v[6.00,6.50)","ww[1.10,1.20)","m[0.00,0.25)",1,1,1,1.0,1,0,success,none,3.09204789593214,3.09204789593214,0.1773953449625569,1.0,0.0473366403627029,0.0,all_success,branch_local_only_no_cross_layout_decision_transfer
"cell|branch=four_fan_branch|fan=four_fan|env=W1_four_fan|family=bank_yaw_energy_retaining|target=15p0|dir=1|start=lift_sector|latency=nominal|radius=r[0.25,0.50)|speed=v[6.00,6.50)|wing_mean=ww[1.60,1.70)|margin=m[0.50,0.75)",four_fan_branch,four_fan,W1_four_fan,bank_yaw_energy_retaining,15.0,1,lift_sector,nominal,"r[0.25,0.50)","v[6.00,6.50)","ww[1.60,1.70)","m[0.50,0.75)",1,1,1,1.0,1,0,success,none,0.2319094448915564,0.2319094448915564,0.1734738422707491,1.0,0.5044893008822334,0.0,all_success,branch_local_only_no_cross_layout_decision_transfer
"cell|branch=four_fan_branch|fan=four_fan|env=W1_four_fan|family=bank_yaw_energy_retaining|target=15p0|dir=1|start=lift_sector|latency=nominal|radius=r[0.25,0.50)|speed=v[6.50,7.00)|wing_mean=ww[1.10,1.20)|margin=m[0.00,0.25)",four_fan_branch,four_fan,W1_four_fan,bank_yaw_energy_retaining,15.0,1,lift_sector,nominal,"r[0.25,0.50)","v[6.50,7.00)","ww[1.10,1.20)","m[0.00,0.25)",1,1,1,1.0,1,0,success,none,4.523982117964224,4.523982117964224,0.0984639130730258,1.0,0.1689806430337585,0.0,all_success,branch_local_only_no_cross_layout_decision_transfer
"cell|branch=four_fan_branch|fan=four_fan|env=W1_four_fan|family=bank_yaw_energy_retaining|target=15p0|dir=1|start=lift_sector|latency=nominal|radius=r[0.50,0.75)|speed=v[5.00,5.50)|wing_mean=ww[0.80,0.90)|margin=m[0.25,0.50)",four_fan_branch,four_fan,W1_four_fan,bank_yaw_energy_retaining,15.0,1,lift_sector,nominal,"r[0.50,0.75)","v[5.00,5.50)","ww[0.80,0.90)","m[0.25,0.50)",1,1,1,1.0,1,0,success,none,3.640619084620496,3.640619084620496,0.0600823419440614,1.0,0.3435974538162952,0.0,all_success,branch_local_only_no_cross_layout_decision_transfer
"cell|branch=four_fan_branch|fan=four_fan|env=W1_four_fan|family=bank_yaw_energy_retaining|target=15p0|dir=1|start=lift_sector|latency=nominal|radius=r[0.50,0.75)|speed=v[5.00,5.50)|wing_mean=ww[0.80,0.90)|margin=m[1.00,1.25)",four_fan_branch,four_fan,W1_four_fan,bank_yaw_energy_retaining,15.0,1,lift_sector,nominal,"r[0.50,0.75)","v[5.00,5.50)","ww[0.80,0.90)","m[1.00,1.25)",1,1,1,1.0,1,0,success,none,1.423679776174243,1.423679776174243,0.1602242905974913,1.0,1.0592518950944685,0.0,all_success,branch_local_only_no_cross_layout_decision_transfer
"cell|branch=four_fan_branch|fan=four_fan|env=W1_four_fan|family=bank_yaw_energy_retaining|target=15p0|dir=1|start=lift_sector|latency=nominal|radius=r[0.50,0.75)|speed=v[5.50,6.00)|wing_mean=ww[0.80,0.90)|margin=m[0.25,0.50)",four_fan_branch,four_fan,W1_four_fan,bank_yaw_energy_retaining,15.0,1,lift_sector,nominal,"r[0.50,0.75)","v[5.50,6.00)","ww[0.80,0.90)","m[0.25,0.50)",1,1,1,1.0,1,0,success,none,1.4310051107015198,1.4310051107015198,0.1468026682322079,1.0,0.48930377145914,0.0,all_success,branch_local_only_no_cross_layout_decision_transfer
"cell|branch=four_fan_branch|fan=four_fan|env=W1_four_fan|family=bank_yaw_energy_retaining|target=15p0|dir=1|start=lift_sector|latency=nominal|radius=r[0.50,0.75)|speed=v[6.00,6.50)|wing_mean=ww[1.10,1.20)|margin=m[0.25,0.50)",four_fan_branch,four_fan,W1_four_fan,bank_yaw_energy_retaining,15.0,1,lift_sector,nominal,"r[0.50,0.75)","v[6.00,6.50)","ww[1.10,1.20)","m[0.25,0.50)",1,1,1,1.0,1,0,success,none,1.0456448712527262,1.0456448712527262,0.189563498871776,1.0,0.3346668481907437,0.0,all_success,branch_local_only_no_cross_layout_decision_transfer
"cell|branch=four_fan_branch|fan=four_fan|env=W1_four_fan|family=bank_yaw_energy_retaining|target=15p0|dir=1|start=lift_sector|latency=nominal|radius=r[0.75,1.00)|speed=v[5.00,5.50)|wing_mean=ww[0.80,0.90)|margin=m[0.75,1.00)",four_fan_branch,four_fan,W1_four_fan,bank_yaw_energy_retaining,15.0,1,lift_sector,nominal,"r[0.75,1.00)","v[5.00,5.50)","ww[0.80,0.90)","m[0.75,1.00)",1,1,1,1.0,1,0,success,none,0.1334087170174314,0.1334087170174314,0.2162450057654421,1.0,0.8143475157101163,0.0,all_success,branch_local_only_no_cross_layout_decision_transfer
"cell|branch=four_fan_branch|fan=four_fan|env=W1_four_fan|family=bank_yaw_energy_retaining|target=15p0|dir=1|start=lift_sector|latency=nominal|radius=r[0.75,1.00)|speed=v[5.00,5.50)|wing_mean=ww[1.10,1.20)|margin=m[0.50,0.75)",four_fan_branch,four_fan,W1_four_fan,bank_yaw_energy_retaining,15.0,1,lift_sector,nominal,"r[0.75,1.00)","v[5.00,5.50)","ww[1.10,1.20)","m[0.50,0.75)",1,1,1,1.0,1,0,success,none,2.7489318609377875,2.7489318609377875,0.2705982453388165,1.0,0.540985031004709,0.0,all_success,branch_local_only_no_cross_layout_decision_transfer
"cell|branch=four_fan_branch|fan=four_fan|env=W1_four_fan|family=bank_yaw_energy_retaining|target=15p0|dir=1|start=lift_sector|latency=nominal|radius=r[0.75,1.00)|speed=v[5.50,6.00)|wing_mean=ww[0.40,0.50)|margin=m[0.25,0.50)",four_fan_branch,four_fan,W1_four_fan,bank_yaw_energy_retaining,15.0,1,lift_sector,nominal,"r[0.75,1.00)","v[5.50,6.00)","ww[0.40,0.50)","m[0.25,0.50)",1,1,1,1.0,1,0,success,none,4.096877719328035,4.096877719328035,0.0253530437129132,1.0,0.274722991372917,0.0,all_success,branch_local_only_no_cross_layout_decision_transfer
"cell|branch=four_fan_branch|fan=four_fan|env=W1_four_fan|family=bank_yaw_energy_retaining|target=15p0|dir=1|start=lift_sector|latency=nominal|radius=r[0.75,1.00)|speed=v[5.50,6.00)|wing_mean=ww[0.70,0.80)|margin=m[0.00,0.25)",four_fan_branch,four_fan,W1_four_fan,bank_yaw_energy_retaining,15.0,1,lift_sector,nominal,"r[0.75,1.00)","v[5.50,6.00)","ww[0.70,0.80)","m[0.00,0.25)",1,1,1,1.0,1,0,success,none,3.889030163681277,3.889030163681277,0.2699250946227733,1.0,0.0499999999999998,0.0,all_success,branch_local_only_no_cross_layout_decision_transfer
"cell|branch=four_fan_branch|fan=four_fan|env=W1_four_fan|family=bank_yaw_energy_retaining|target=15p0|dir=1|start=lift_sector|latency=nominal|radius=r[0.75,1.00)|speed=v[5.50,6.00)|wing_mean=ww[1.00,1.10)|margin=m[0.25,0.50)",four_fan_branch,four_fan,W1_four_fan,bank_yaw_energy_retaining,15.0,1,lift_sector,nominal,"r[0.75,1.00)","v[5.50,6.00)","ww[1.00,1.10)","m[0.25,0.50)",1,1,1,1.0,1,0,success,none,2.855997821176956,2.855997821176956,0.3684801835537823,1.0,0.382569110299614,0.0,all_success,branch_local_only_no_cross_layout_decision_transfer
"cell|branch=four_fan_branch|fan=four_fan|env=W1_four_fan|family=bank_yaw_energy_retaining|target=15p0|dir=1|start=lift_sector|latency=nominal|radius=r[0.75,1.00)|speed=v[6.00,6.50)|wing_mean=ww[0.50,0.60)|margin=m[0.50,0.75)",four_fan_branch,four_fan,W1_four_fan,bank_yaw_energy_retaining,15.0,1,lift_sector,nominal,"r[0.75,1.00)","v[6.00,6.50)","ww[0.50,0.60)","m[0.50,0.75)",1,1,1,1.0,1,0,success,none,0.3807663267742924,0.3807663267742924,0.1688897997566161,1.0,0.6594348856516468,0.0,all_success,branch_local_only_no_cross_layout_decision_transfer
"cell|branch=four_fan_branch|fan=four_fan|env=W1_four_fan|family=bank_yaw_energy_retaining|target=15p0|dir=1|start=lift_sector|latency=nominal|radius=r[0.75,1.00)|speed=v[6.00,6.50)|wing_mean=ww[0.70,0.80)|margin=m[0.25,0.50)",four_fan_branch,four_fan,W1_four_fan,bank_yaw_energy_retaining,15.0,1,lift_sector,nominal,"r[0.75,1.00)","v[6.00,6.50)","ww[0.70,0.80)","m[0.25,0.50)",1,1,1,1.0,1,0,success,none,1.016329960779245,1.016329960779245,0.2084243032153687,1.0,0.4260572049597241,0.0,all_success,branch_local_only_no_cross_layout_decision_transfer
"cell|branch=four_fan_branch|fan=four_fan|env=W1_four_fan|family=bank_yaw_energy_retaining|target=15p0|dir=1|start=lift_sector|latency=nominal|radius=r[0.75,1.00)|speed=v[6.50,7.00)|wing_mean=ww[0.90,1.00)|margin=m[0.50,0.75)",four_fan_branch,four_fan,W1_four_fan,bank_yaw_energy_retaining,15.0,1,lift_sector,nominal,"r[0.75,1.00)","v[6.50,7.00)","ww[0.90,1.00)","m[0.50,0.75)",1,1,1,1.0,1,0,success,none,2.5526387250752194,2.5526387250752194,0.1980825829113146,1.0,0.5111357031765206,0.0,all_success,branch_local_only_no_cross_layout_decision_transfer
"cell|branch=four_fan_branch|fan=four_fan|env=W1_four_fan|family=bank_yaw_energy_retaining|target=15p0|dir=1|start=lift_sector|latency=nominal|radius=r[1.00,1.25)|speed=v[5.50,6.00)|wing_mean=ww[0.40,0.50)|margin=m[0.00,0.25)",four_fan_branch,four_fan,W1_four_fan,bank_yaw_energy_retaining,15.0,1,lift_sector,nominal,"r[1.00,1.25)","v[5.50,6.00)","ww[0.40,0.50)","m[0.00,0.25)",1,1,1,1.0,1,0,success,none,3.669274662368125,3.669274662368125,0.087901037255949,1.0,0.2097521234159196,0.0,all_success,branch_local_only_no_cross_layout_decision_transfer
"cell|branch=four_fan_branch|fan=four_fan|env=W1_four_fan|family=bank_yaw_energy_retaining|target=15p0|dir=1|start=lift_sector|latency=nominal|radius=r[1.00,1.25)|speed=v[6.00,6.50)|wing_mean=ww[0.20,0.30)|margin=m[0.25,0.50)",four_fan_branch,four_fan,W1_four_fan,bank_yaw_energy_retaining,15.0,1,lift_sector,nominal,"r[1.00,1.25)","v[6.00,6.50)","ww[0.20,0.30)","m[0.25,0.50)",1,1,1,1.0,1,0,success,none,4.646617596574629,4.646617596574629,0.0921359991317931,1.0,0.3112849904093613,0.0,all_success,branch_local_only_no_cross_layout_decision_transfer
"cell|branch=four_fan_branch|fan=four_fan|env=W1_four_fan|family=bank_yaw_energy_retaining|target=15p0|dir=1|start=lift_sector|latency=nominal|radius=r[1.00,1.25)|speed=v[6.50,7.00)|wing_mean=ww[0.30,0.40)|margin=m[0.25,0.50)",four_fan_branch,four_fan,W1_four_fan,bank_yaw_energy_retaining,15.0,1,lift_sector,nominal,"r[1.00,1.25)","v[6.50,7.00)","ww[0.30,0.40)","m[0.25,0.50)",1,1,1,1.0,1,0,success,none,4.559522894947662,4.559522894947662,0.2752828039910397,1.0,0.3085743778793111,0.0,all_success,branch_local_only_no_cross_layout_decision_transfer
"cell|branch=four_fan_branch|fan=four_fan|env=W1_four_fan|family=bank_yaw_energy_retaining|target=15p0|dir=1|start=lift_sector|latency=nominal|radius=r[1.00,1.25)|speed=v[6.50,7.00)|wing_mean=ww[0.80,0.90)|margin=m[0.25,0.50)",four_fan_branch,four_fan,W1_four_fan,bank_yaw_energy_retaining,15.0,1,lift_sector,nominal,"r[1.00,1.25)","v[6.50,7.00)","ww[0.80,0.90)","m[0.25,0.50)",1,1,1,1.0,1,0,success,none,2.2682603538597874,2.2682603538597874,0.029153175968358,1.0,0.3187392208497572,0.0,all_success,branch_local_only_no_cross_layout_decision_transfer
"cell|branch=four_fan_branch|fan=four_fan|env=W1_four_fan|family=bank_yaw_energy_retaining|target=15p0|dir=1|start=mid_arena|latency=nominal|radius=r[0.25,0.50)|speed=v[6.00,6.50)|wing_mean=ww[1.10,1.20)|margin=m[0.00,0.25)",four_fan_branch,four_fan,W1_four_fan,bank_yaw_energy_retaining,15.0,1,mid_arena,nominal,"r[0.25,0.50)","v[6.00,6.50)","ww[1.10,1.20)","m[0.00,0.25)",1,1,1,1.0,1,0,success,none,4.808543515613604,4.808543515613604,0.0519250370150787,1.0,0.0368441323672641,0.0,all_success,branch_local_only_no_cross_layout_decision_transfer
"cell|branch=four_fan_branch|fan=four_fan|env=W1_four_fan|family=bank_yaw_energy_retaining|target=15p0|dir=1|start=mid_arena|latency=nominal|radius=r[0.50,0.75)|speed=v[6.00,6.50)|wing_mean=ww[0.90,1.00)|margin=m[0.00,0.25)",four_fan_branch,four_fan,W1_four_fan,bank_yaw_energy_retaining,15.0,1,mid_arena,nominal,"r[0.50,0.75)","v[6.00,6.50)","ww[0.90,1.00)","m[0.00,0.25)",1,1,1,1.0,1,0,success,none,3.695108343816944,3.695108343816944,-0.0107803410404541,1.0,0.1837851413061653,0.0,all_success,branch_local_only_no_cross_layout_decision_transfer
"cell|branch=four_fan_branch|fan=four_fan|env=W1_four_fan|family=bank_yaw_energy_retaining|target=15p0|dir=1|start=mid_arena|latency=nominal|radius=r[0.75,1.00)|speed=v[5.50,6.00)|wing_mean=ww[0.70,0.80)|margin=m[0.00,0.25)",four_fan_branch,four_fan,W1_four_fan,bank_yaw_energy_retaining,15.0,1,mid_arena,nominal,"r[0.75,1.00)","v[5.50,6.00)","ww[0.70,0.80)","m[0.00,0.25)",1,1,1,1.0,1,0,success,none,0.2678517073116602,0.2678517073116602,0.1219981504549139,1.0,0.0843769355961825,0.0,all_success,branch_local_only_no_cross_layout_decision_transfer
"cell|branch=four_fan_branch|fan=four_fan|env=W1_four_fan|family=bank_yaw_energy_retaining|target=15p0|dir=1|start=mid_arena|latency=nominal|radius=r[1.25,1.50)|speed=v[5.50,6.00)|wing_mean=ww[0.70,0.80)|margin=m[0.50,0.75)",four_fan_branch,four_fan,W1_four_fan,bank_yaw_energy_retaining,15.0,1,mid_arena,nominal,"r[1.25,1.50)","v[5.50,6.00)","ww[0.70,0.80)","m[0.50,0.75)",1,1,1,1.0,1,0,success,none,1.552155845237099,1.552155845237099,0.2191928610574978,1.0,0.7202867736026395,0.0,all_success,branch_local_only_no_cross_layout_decision_transfer
"cell|branch=four_fan_branch|fan=four_fan|env=W1_four_fan|family=bank_yaw_energy_retaining|target=15p0|dir=1|start=mid_arena|latency=nominal|radius=r[1.50,1.75)|speed=v[5.50,6.00)|wing_mean=ww[1.00,1.10)|margin=m[0.25,0.50)",four_fan_branch,four_fan,W1_four_fan,bank_yaw_energy_retaining,15.0,1,mid_arena,nominal,"r[1.50,1.75)","v[5.50,6.00)","ww[1.00,1.10)","m[0.25,0.50)",1,1,1,1.0,1,0,success,none,4.534937120749337,4.534937120749337,0.1947601469848905,1.0,0.2737399711008369,0.0,all_success,branch_local_only_no_cross_layout_decision_transfer
"cell|branch=four_fan_branch|fan=four_fan|env=W1_four_fan|family=bank_yaw_energy_retaining|target=15p0|dir=1|start=mid_arena|latency=nominal|radius=r[1.50,1.75)|speed=v[6.00,6.50)|wing_mean=ww[0.70,0.80)|margin=m[0.00,0.25)",four_fan_branch,four_fan,W1_four_fan,bank_yaw_energy_retaining,15.0,1,mid_arena,nominal,"r[1.50,1.75)","v[6.00,6.50)","ww[0.70,0.80)","m[0.00,0.25)",1,1,1,1.0,1,0,success,none,3.7894022718777274,3.7894022718777274,0.0075820223210349,1.0,0.0136004831336018,0.0,all_success,branch_local_only_no_cross_layout_decision_transfer
"cell|branch=four_fan_branch|fan=four_fan|env=W1_four_fan|family=bank_yaw_energy_retaining|target=15p0|dir=1|start=mid_arena|latency=nominal|radius=r[1.75,2.00)|speed=v[6.00,6.50)|wing_mean=ww[0.80,0.90)|margin=m[0.50,0.75)",four_fan_branch,four_fan,W1_four_fan,bank_yaw_energy_retaining,15.0,1,mid_arena,nominal,"r[1.75,2.00)","v[6.00,6.50)","ww[0.80,0.90)","m[0.50,0.75)",1,1,1,1.0,1,0,success,none,0.4645962304570368,0.4645962304570368,0.157628580331897,1.0,0.6985448618031276,0.0,all_success,branch_local_only_no_cross_layout_decision_transfer
"cell|branch=four_fan_branch|fan=four_fan|env=W1_four_fan|family=bank_yaw_energy_retaining|target=15p0|dir=1|start=mid_arena|latency=nominal|radius=r[2.00,2.25)|speed=v[5.50,6.00)|wing_mean=ww[1.30,1.40)|margin=m[0.75,1.00)",four_fan_branch,four_fan,W1_four_fan,bank_yaw_energy_retaining,15.0,1,mid_arena,nominal,"r[2.00,2.25)","v[5.50,6.00)","ww[1.30,1.40)","m[0.75,1.00)",1,1,1,1.0,1,0,success,none,4.856267686780669,4.856267686780669,0.1577371686418205,1.0,0.9247362805999142,0.0,all_success,branch_local_only_no_cross_layout_decision_transfer
"cell|branch=four_fan_branch|fan=four_fan|env=W1_four_fan|family=bank_yaw_energy_retaining|target=15p0|dir=1|start=mid_arena|latency=nominal|radius=r[2.25,2.50)|speed=v[6.00,6.50)|wing_mean=ww[1.40,1.50)|margin=m[0.00,0.25)",four_fan_branch,four_fan,W1_four_fan,bank_yaw_energy_retaining,15.0,1,mid_arena,nominal,"r[2.25,2.50)","v[6.00,6.50)","ww[1.40,1.50)","m[0.00,0.25)",1,1,1,1.0,1,0,success,none,1.6478493522729778,1.6478493522729778,0.2067905987720415,1.0,0.1991005293644825,0.0,all_success,branch_local_only_no_cross_layout_decision_transfer
"cell|branch=four_fan_branch|fan=four_fan|env=W1_four_fan|family=bank_yaw_energy_retaining|target=15p0|dir=1|start=mid_arena|latency=nominal|radius=r[2.50,2.75)|speed=v[6.00,6.50)|wing_mean=ww[1.20,1.30)|margin=m[0.25,0.50)",four_fan_branch,four_fan,W1_four_fan,bank_yaw_energy_retaining,15.0,1,mid_arena,nominal,"r[2.50,2.75)","v[6.00,6.50)","ww[1.20,1.30)","m[0.25,0.50)",1,1,1,1.0,1,0,success,none,2.9090407362469435,2.9090407362469435,0.2798903486623425,1.0,0.3840270051138938,0.0,all_success,branch_local_only_no_cross_layout_decision_transfer
"cell|branch=four_fan_branch|fan=four_fan|env=W1_four_fan|family=bank_yaw_energy_retaining|target=15p0|dir=1|start=mid_arena|latency=nominal|radius=r[2.75,3.00)|speed=v[6.00,6.50)|wing_mean=ww[0.70,0.80)|margin=m[0.25,0.50)",four_fan_branch,four_fan,W1_four_fan,bank_yaw_energy_retaining,15.0,1,mid_arena,nominal,"r[2.75,3.00)","v[6.00,6.50)","ww[0.70,0.80)","m[0.25,0.50)",1,1,1,1.0,1,0,success,none,3.6798475334434535,3.6798475334434535,0.1715903016038713,1.0,0.3128569126662963,0.0,all_success,branch_local_only_no_cross_layout_decision_transfer
"cell|branch=four_fan_branch|fan=four_fan|env=W1_four_fan|family=bank_yaw_energy_retaining|target=15p0|dir=1|start=mid_arena|latency=nominal|radius=r[2.75,3.00)|speed=v[6.00,6.50)|wing_mean=ww[1.10,1.20)|margin=m[0.25,0.50)",four_fan_branch,four_fan,W1_four_fan,bank_yaw_energy_retaining,15.0,1,mid_arena,nominal,"r[2.75,3.00)","v[6.00,6.50)","ww[1.10,1.20)","m[0.25,0.50)",1,1,1,1.0,1,0,success,none,1.95700874006584,1.95700874006584,0.291162044784822,1.0,0.3990940296388814,0.0,all_success,branch_local_only_no_cross_layout_decision_transfer
"cell|branch=four_fan_branch|fan=four_fan|env=W1_four_fan|family=bank_yaw_energy_retaining|target=15p0|dir=1|start=mid_arena|latency=nominal|radius=r[2.75,3.00)|speed=v[6.50,7.00)|wing_mean=ww[0.70,0.80)|margin=m[0.00,0.25)",four_fan_branch,four_fan,W1_four_fan,bank_yaw_energy_retaining,15.0,1,mid_arena,nominal,"r[2.75,3.00)","v[6.50,7.00)","ww[0.70,0.80)","m[0.00,0.25)",1,1,1,1.0,1,0,success,none,1.8447494193580631,1.8447494193580631,-0.0473740749985935,1.0,0.0677111846596482,0.0,all_success,branch_local_only_no_cross_layout_decision_transfer
"cell|branch=four_fan_branch|fan=four_fan|env=W1_four_fan|family=bank_yaw_energy_retaining|target=15p0|dir=1|start=mid_arena|latency=nominal|radius=r[3.00,3.25)|speed=v[6.00,6.50)|wing_mean=ww[0.40,0.50)|margin=m[0.00,0.25)",four_fan_branch,four_fan,W1_four_fan,bank_yaw_energy_retaining,15.0,1,mid_arena,nominal,"r[3.00,3.25)","v[6.00,6.50)","ww[0.40,0.50)","m[0.00,0.25)",1,1,1,1.0,1,0,success,none,2.337682535925694,2.337682535925694,0.0457168710222544,1.0,0.0434209684915036,0.0,all_success,branch_local_only_no_cross_layout_decision_transfer
"cell|branch=four_fan_branch|fan=four_fan|env=W1_four_fan|family=bank_yaw_energy_retaining|target=15p0|dir=1|start=mid_arena|latency=nominal|radius=r[3.00,3.25)|speed=v[6.50,7.00)|wing_mean=ww[0.60,0.70)|margin=m[0.00,0.25)",four_fan_branch,four_fan,W1_four_fan,bank_yaw_energy_retaining,15.0,1,mid_arena,nominal,"r[3.00,3.25)","v[6.50,7.00)","ww[0.60,0.70)","m[0.00,0.25)",1,1,1,1.0,1,0,success,none,3.138557727506818,3.138557727506818,0.0931059813540784,1.0,0.0957897624878896,0.0,all_success,branch_local_only_no_cross_layout_decision_transfer
"cell|branch=four_fan_branch|fan=four_fan|env=W1_four_fan|family=bank_yaw_energy_retaining|target=15p0|dir=1|start=mid_arena|latency=nominal|radius=r[3.25,3.50)|speed=v[6.00,6.50)|wing_mean=ww[0.70,0.80)|margin=m[0.25,0.50)",four_fan_branch,four_fan,W1_four_fan,bank_yaw_energy_retaining,15.0,1,mid_arena,nominal,"r[3.25,3.50)","v[6.00,6.50)","ww[0.70,0.80)","m[0.25,0.50)",1,1,1,1.0,1,0,success,none,4.702256382900323,4.702256382900323,0.0120746744275894,1.0,0.3716009580092194,0.0,all_success,branch_local_only_no_cross_layout_decision_transfer
"cell|branch=four_fan_branch|fan=four_fan|env=W1_four_fan|family=bank_yaw_energy_retaining|target=15p0|dir=1|start=random_stress|latency=nominal|radius=r[0.50,0.75)|speed=v[6.00,6.50)|wing_mean=ww[1.10,1.20)|margin=m[0.00,0.25)",four_fan_branch,four_fan,W1_four_fan,bank_yaw_energy_retaining,15.0,1,random_stress,nominal,"r[0.50,0.75)","v[6.00,6.50)","ww[1.10,1.20)","m[0.00,0.25)",1,1,1,1.0,1,0,success,none,0.4810439768150871,0.4810439768150871,0.2003441246076427,1.0,0.187259188815176,0.0,all_success,branch_local_only_no_cross_layout_decision_transfer
"cell|branch=four_fan_branch|fan=four_fan|env=W1_four_fan|family=bank_yaw_energy_retaining|target=15p0|dir=1|start=random_stress|latency=nominal|radius=r[0.75,1.00)|speed=v[5.50,6.00)|wing_mean=ww[0.40,0.50)|margin=m[0.25,0.50)",four_fan_branch,four_fan,W1_four_fan,bank_yaw_energy_retaining,15.0,1,random_stress,nominal,"r[0.75,1.00)","v[5.50,6.00)","ww[0.40,0.50)","m[0.25,0.50)",1,1,1,1.0,1,0,success,none,4.541391434587183,4.541391434587183,-0.0039298817725903,1.0,0.410345264846432,0.0,all_success,branch_local_only_no_cross_layout_decision_transfer
"cell|branch=four_fan_branch|fan=four_fan|env=W1_four_fan|family=bank_yaw_energy_retaining|target=15p0|dir=1|start=random_stress|latency=nominal|radius=r[1.50,1.75)|speed=v[5.00,5.50)|wing_mean=ww[0.30,0.40)|margin=m[0.25,0.50)",four_fan_branch,four_fan,W1_four_fan,bank_yaw_energy_retaining,15.0,1,random_stress,nominal,"r[1.50,1.75)","v[5.00,5.50)","ww[0.30,0.40)","m[0.25,0.50)",1,1,1,1.0,1,0,success,none,3.45797094925436,3.45797094925436,-0.0886304390638605,1.0,0.316423133339752,0.0,all_success,branch_local_only_no_cross_layout_decision_transfer
"cell|branch=four_fan_branch|fan=four_fan|env=W1_four_fan|family=bank_yaw_energy_retaining|target=15p0|dir=1|start=random_stress|latency=nominal|radius=r[1.50,1.75)|speed=v[5.50,6.00)|wing_mean=ww[0.20,0.30)|margin=m[0.00,0.25)",four_fan_branch,four_fan,W1_four_fan,bank_yaw_energy_retaining,15.0,1,random_stress,nominal,"r[1.50,1.75)","v[5.50,6.00)","ww[0.20,0.30)","m[0.00,0.25)",1,1,1,1.0,1,0,success,none,0.931308612144857,0.931308612144857,0.0971866839947352,1.0,0.0319385203192982,0.0,all_success,branch_local_only_no_cross_layout_decision_transfer
"cell|branch=four_fan_branch|fan=four_fan|env=W1_four_fan|family=bank_yaw_energy_retaining|target=15p0|dir=1|start=random_stress|latency=nominal|radius=r[1.75,2.00)|speed=v[5.50,6.00)|wing_mean=ww[0.20,0.30)|margin=m[0.00,0.25)",four_fan_branch,four_fan,W1_four_fan,bank_yaw_energy_retaining,15.0,1,random_stress,nominal,"r[1.75,2.00)","v[5.50,6.00)","ww[0.20,0.30)","m[0.00,0.25)",1,1,1,1.0,1,0,success,none,0.5618336173868954,0.5618336173868954,0.0699717460840703,1.0,0.1673809710594147,0.0,all_success,branch_local_only_no_cross_layout_decision_transfer
"cell|branch=four_fan_branch|fan=four_fan|env=W1_four_fan|family=bank_yaw_energy_retaining|target=15p0|dir=1|start=random_stress|latency=nominal|radius=r[1.75,2.00)|speed=v[5.50,6.00)|wing_mean=ww[0.70,0.80)|margin=m[0.00,0.25)",four_fan_branch,four_fan,W1_four_fan,bank_yaw_energy_retaining,15.0,1,random_stress,nominal,"r[1.75,2.00)","v[5.50,6.00)","ww[0.70,0.80)","m[0.00,0.25)",1,1,1,1.0,1,0,success,none,4.707329089937193,4.707329089937193,0.1583692766782354,1.0,0.0592060408554004,0.0,all_success,branch_local_only_no_cross_layout_decision_transfer
"cell|branch=four_fan_branch|fan=four_fan|env=W1_four_fan|family=bank_yaw_energy_retaining|target=15p0|dir=1|start=random_stress|latency=nominal|radius=r[2.00,2.25)|speed=v[6.50,7.00)|wing_mean=ww[0.80,0.90)|margin=m[0.00,0.25)",four_fan_branch,four_fan,W1_four_fan,bank_yaw_energy_retaining,15.0,1,random_stress,nominal,"r[2.00,2.25)","v[6.50,7.00)","ww[0.80,0.90)","m[0.00,0.25)",1,1,1,1.0,1,0,success,none,4.678976298143269,4.678976298143269,0.05120608808196,1.0,0.1446065390635151,0.0,all_success,branch_local_only_no_cross_layout_decision_transfer
