envelope_cell_id,layout_branch_id,fan_layout,test_environment_mode,family,target_heading_deg,direction_sign,start_class,latency_case,radius_bin_m,speed_bin_m_s,wing_mean_bin_m_s,margin_bin_m,trial_count,evaluated_trial_count,success_count,success_fraction,nominal_pass_count,conservative_pass_count,dominant_failure_label,dominant_governor_rejection_cause,mean_heading_error_deg,median_heading_error_deg,mean_energy_residual_m,mean_lift_dwell_fraction,min_true_margin_m_min,saturation_fraction_mean,cell_status,branch_decision_scope
"cell|branch=four_fan_branch|fan=four_fan|env=W0_four_fan_branch|family=bank_yaw_energy_retaining|target=120p0|dir=-1|start=favourable|latency=nominal|radius=r[1.50,1.75)|speed=v[6.50,7.00)|wing_mean=ww_nan|margin=m[-0.25,0.00)",four_fan_branch,four_fan,W0_four_fan_branch,bank_yaw_energy_retaining,120.0,-1,favourable,nominal,"r[1.50,1.75)","v[6.50,7.00)",ww_nan,"m[-0.25,0.00)",2,2,0,0.0,0,0,true_safety_violation,none,115.66547154186159,115.66547154186159,-0.23505142326079387,0.0,-0.12210055983917467,0.0,all_failure,branch_local_only_no_cross_layout_decision_transfer
"cell|branch=four_fan_branch|fan=four_fan|env=W0_four_fan_branch|family=bank_yaw_energy_retaining|target=120p0|dir=-1|start=favourable|latency=nominal|radius=r[1.75,2.00)|speed=v[6.00,6.50)|wing_mean=ww_nan|margin=m[-0.25,0.00)",four_fan_branch,four_fan,W0_four_fan_branch,bank_yaw_energy_retaining,120.0,-1,favourable,nominal,"r[1.75,2.00)","v[6.00,6.50)",ww_nan,"m[-0.25,0.00)",1,1,0,0.0,0,0,true_safety_violation,none,112.43823373060994,112.43823373060994,-0.28388167009763077,0.0,-0.037801618573834794,0.0,all_failure,branch_local_only_no_cross_layout_decision_transfer
"cell|branch=four_fan_branch|fan=four_fan|env=W0_four_fan_branch|family=bank_yaw_energy_retaining|target=120p0|dir=-1|start=lift_sector|latency=nominal|radius=r[0.00,0.25)|speed=v[5.50,6.00)|wing_mean=ww_nan|margin=m[-0.25,0.00)",four_fan_branch,four_fan,W0_four_fan_branch,bank_yaw_energy_retaining,120.0,-1,lift_sector,nominal,"r[0.00,0.25)","v[5.50,6.00)",ww_nan,"m[-0.25,0.00)",1,1,0,0.0,0,0,true_safety_violation,none,118.93754371366543,118.93754371366543,-0.13362385764207696,0.0,-0.036880212780694865,0.0,all_failure,branch_local_only_no_cross_layout_decision_transfer
"cell|branch=four_fan_branch|fan=four_fan|env=W0_four_fan_branch|family=bank_yaw_energy_retaining|target=120p0|dir=-1|start=lift_sector|latency=nominal|radius=r[0.50,0.75)|speed=v[5.00,5.50)|wing_mean=ww_nan|margin=m[-0.25,0.00)",four_fan_branch,four_fan,W0_four_fan_branch,bank_yaw_energy_retaining,120.0,-1,lift_sector,nominal,"r[0.50,0.75)","v[5.00,5.50)",ww_nan,"m[-0.25,0.00)",1,1,0,0.0,0,0,true_safety_violation,none,119.05322996230403,119.05322996230403,-0.06076776019633945,0.0,-0.0890380439549725,0.0,all_failure,branch_local_only_no_cross_layout_decision_transfer
"cell|branch=four_fan_branch|fan=four_fan|env=W0_four_fan_branch|family=bank_yaw_energy_retaining|target=120p0|dir=-1|start=lift_sector|latency=nominal|radius=r[0.50,0.75)|speed=v[5.50,6.00)|wing_mean=ww_nan|margin=m[0.50,0.75)",four_fan_branch,four_fan,W0_four_fan_branch,bank_yaw_energy_retaining,120.0,-1,lift_sector,nominal,"r[0.50,0.75)","v[5.50,6.00)",ww_nan,"m[0.50,0.75)",1,1,0,0.0,0,0,target_miss,none,108.6178104191024,108.6178104191024,-0.2726616831442641,0.0,0.5492734933797526,0.0,all_failure,branch_local_only_no_cross_layout_decision_transfer
"cell|branch=four_fan_branch|fan=four_fan|env=W0_four_fan_branch|family=bank_yaw_energy_retaining|target=120p0|dir=-1|start=mid_arena|latency=nominal|radius=r[1.50,1.75)|speed=v[7.00,7.50)|wing_mean=ww_nan|margin=m[-0.25,0.00)",four_fan_branch,four_fan,W0_four_fan_branch,bank_yaw_energy_retaining,120.0,-1,mid_arena,nominal,"r[1.50,1.75)","v[7.00,7.50)",ww_nan,"m[-0.25,0.00)",1,1,0,0.0,0,0,true_safety_violation,none,112.11915641227566,112.11915641227566,-0.35030686239000985,0.0,-0.05216106532365394,0.0,all_failure,branch_local_only_no_cross_layout_decision_transfer
"cell|branch=four_fan_branch|fan=four_fan|env=W0_four_fan_branch|family=bank_yaw_energy_retaining|target=120p0|dir=-1|start=mid_arena|latency=nominal|radius=r[1.75,2.00)|speed=v[6.00,6.50)|wing_mean=ww_nan|margin=m[0.00,0.25)",four_fan_branch,four_fan,W0_four_fan_branch,bank_yaw_energy_retaining,120.0,-1,mid_arena,nominal,"r[1.75,2.00)","v[6.00,6.50)",ww_nan,"m[0.00,0.25)",1,1,0,0.0,0,0,target_miss,none,111.38027261446959,111.38027261446959,-0.3269393698362979,0.0,0.04443211398083918,0.0,all_failure,branch_local_only_no_cross_layout_decision_transfer
"cell|branch=four_fan_branch|fan=four_fan|env=W0_four_fan_branch|family=bank_yaw_energy_retaining|target=120p0|dir=-1|start=random_stress|latency=nominal|radius=r[4.00,4.25)|speed=v[6.00,6.50)|wing_mean=ww_nan|margin=m[-0.25,0.00)",four_fan_branch,four_fan,W0_four_fan_branch,bank_yaw_energy_retaining,120.0,-1,random_stress,nominal,"r[4.00,4.25)","v[6.00,6.50)",ww_nan,"m[-0.25,0.00)",1,1,0,0.0,0,0,true_safety_violation,none,120.57020802222544,120.57020802222544,-0.09890934732715095,0.0,-0.033028379256648144,0.0,all_failure,branch_local_only_no_cross_layout_decision_transfer
"cell|branch=four_fan_branch|fan=four_fan|env=W0_four_fan_branch|family=bank_yaw_energy_retaining|target=120p0|dir=-1|start=random_stress|latency=nominal|radius=r[4.75,5.00)|speed=v[5.00,5.50)|wing_mean=ww_nan|margin=m[-0.25,0.00)",four_fan_branch,four_fan,W0_four_fan_branch,bank_yaw_energy_retaining,120.0,-1,random_stress,nominal,"r[4.75,5.00)","v[5.00,5.50)",ww_nan,"m[-0.25,0.00)",1,1,0,0.0,0,0,true_safety_violation,none,105.00580229612133,105.00580229612133,-0.27590382220817355,0.0,-0.02425763397504721,0.0,all_failure,branch_local_only_no_cross_layout_decision_transfer
"cell|branch=four_fan_branch|fan=four_fan|env=W0_four_fan_branch|family=bank_yaw_energy_retaining|target=120p0|dir=1|start=favourable|latency=nominal|radius=r[1.50,1.75)|speed=v[6.50,7.00)|wing_mean=ww_nan|margin=m[-0.25,0.00)",four_fan_branch,four_fan,W0_four_fan_branch,bank_yaw_energy_retaining,120.0,1,favourable,nominal,"r[1.50,1.75)","v[6.50,7.00)",ww_nan,"m[-0.25,0.00)",1,1,0,0.0,0,0,true_safety_violation,none,114.51990788167727,114.51990788167727,-0.3132090394437901,0.0,-0.10791845137321499,0.0,all_failure,branch_local_only_no_cross_layout_decision_transfer
"cell|branch=four_fan_branch|fan=four_fan|env=W0_four_fan_branch|family=bank_yaw_energy_retaining|target=120p0|dir=1|start=favourable|latency=nominal|radius=r[1.75,2.00)|speed=v[6.00,6.50)|wing_mean=ww_nan|margin=m[-0.25,0.00)",four_fan_branch,four_fan,W0_four_fan_branch,bank_yaw_energy_retaining,120.0,1,favourable,nominal,"r[1.75,2.00)","v[6.00,6.50)",ww_nan,"m[-0.25,0.00)",1,1,0,0.0,0,0,true_safety_violation,none,118.13571270131663,118.13571270131663,-0.2282041122345726,0.0,-0.08567625316258898,0.0,all_failure,branch_local_only_no_cross_layout_decision_transfer
"cell|branch=four_fan_branch|fan=four_fan|env=W0_four_fan_branch|family=bank_yaw_energy_retaining|target=120p0|dir=1|start=favourable|latency=nominal|radius=r[3.00,3.25)|speed=v[6.00,6.50)|wing_mean=ww_nan|margin=m[0.00,0.25)",four_fan_branch,four_fan,W0_four_fan_branch,bank_yaw_energy_retaining,120.0,1,favourable,nominal,"r[3.00,3.25)","v[6.00,6.50)",ww_nan,"m[0.00,0.25)",1,1,0,0.0,0,0,target_miss,none,111.34111135916018,111.34111135916018,-0.3064518997010355,0.0,0.24602486768098242,0.0,all_failure,branch_local_only_no_cross_layout_decision_transfer
"cell|branch=four_fan_branch|fan=four_fan|env=W0_four_fan_branch|family=bank_yaw_energy_retaining|target=120p0|dir=1|start=lift_sector|latency=nominal|radius=r[0.00,0.25)|speed=v[6.00,6.50)|wing_mean=ww_nan|margin=m[-0.25,0.00)",four_fan_branch,four_fan,W0_four_fan_branch,bank_yaw_energy_retaining,120.0,1,lift_sector,nominal,"r[0.00,0.25)","v[6.00,6.50)",ww_nan,"m[-0.25,0.00)",1,1,0,0.0,0,0,true_safety_violation,none,117.81388750322262,117.81388750322262,-0.09807870197210011,0.0,-0.061327533031099474,0.0,all_failure,branch_local_only_no_cross_layout_decision_transfer
"cell|branch=four_fan_branch|fan=four_fan|env=W0_four_fan_branch|family=bank_yaw_energy_retaining|target=120p0|dir=1|start=lift_sector|latency=nominal|radius=r[0.50,0.75)|speed=v[5.50,6.00)|wing_mean=ww_nan|margin=m[-0.25,0.00)",four_fan_branch,four_fan,W0_four_fan_branch,bank_yaw_energy_retaining,120.0,1,lift_sector,nominal,"r[0.50,0.75)","v[5.50,6.00)",ww_nan,"m[-0.25,0.00)",1,1,0,0.0,0,0,true_safety_violation,none,121.51180394990953,121.51180394990953,-0.10583147466210319,0.0,-0.04740278060252123,0.0,all_failure,branch_local_only_no_cross_layout_decision_transfer
"cell|branch=four_fan_branch|fan=four_fan|env=W0_four_fan_branch|family=bank_yaw_energy_retaining|target=120p0|dir=1|start=lift_sector|latency=nominal|radius=r[0.75,1.00)|speed=v[6.00,6.50)|wing_mean=ww_nan|margin=m[-0.25,0.00)",four_fan_branch,four_fan,W0_four_fan_branch,bank_yaw_energy_retaining,120.0,1,lift_sector,nominal,"r[0.75,1.00)","v[6.00,6.50)",ww_nan,"m[-0.25,0.00)",1,1,0,0.0,0,0,true_safety_violation,none,120.81061555484229,120.81061555484229,-0.1194369347346056,0.0,-0.004346676975511166,0.0,all_failure,branch_local_only_no_cross_layout_decision_transfer
"cell|branch=four_fan_branch|fan=four_fan|env=W0_four_fan_branch|family=bank_yaw_energy_retaining|target=120p0|dir=1|start=mid_arena|latency=nominal|radius=r[1.00,1.25)|speed=v[7.00,7.50)|wing_mean=ww_nan|margin=m[-0.25,0.00)",four_fan_branch,four_fan,W0_four_fan_branch,bank_yaw_energy_retaining,120.0,1,mid_arena,nominal,"r[1.00,1.25)","v[7.00,7.50)",ww_nan,"m[-0.25,0.00)",1,1,0,0.0,0,0,true_safety_violation,none,117.52060574669586,117.52060574669586,-0.2782397655229536,0.0,-0.0691054583870816,0.0,all_failure,branch_local_only_no_cross_layout_decision_transfer
"cell|branch=four_fan_branch|fan=four_fan|env=W0_four_fan_branch|family=bank_yaw_energy_retaining|target=120p0|dir=1|start=mid_arena|latency=nominal|radius=r[2.25,2.50)|speed=v[6.50,7.00)|wing_mean=ww_nan|margin=m[-0.25,0.00)",four_fan_branch,four_fan,W0_four_fan_branch,bank_yaw_energy_retaining,120.0,1,mid_arena,nominal,"r[2.25,2.50)","v[6.50,7.00)",ww_nan,"m[-0.25,0.00)",1,1,0,0.0,0,0,true_safety_violation,none,115.678259504387,115.678259504387,-0.2552090385631649,0.0,-0.024321597576501652,0.0,all_failure,branch_local_only_no_cross_layout_decision_transfer
"cell|branch=four_fan_branch|fan=four_fan|env=W0_four_fan_branch|family=bank_yaw_energy_retaining|target=120p0|dir=1|start=random_stress|latency=nominal|radius=r[4.25,4.50)|speed=v[7.00,7.50)|wing_mean=ww_nan|margin=m[-0.25,0.00)",four_fan_branch,four_fan,W0_four_fan_branch,bank_yaw_energy_retaining,120.0,1,random_stress,nominal,"r[4.25,4.50)","v[7.00,7.50)",ww_nan,"m[-0.25,0.00)",1,1,0,0.0,0,0,true_safety_violation,none,118.18066562066605,118.18066562066605,-0.08604180404028261,0.0,-0.047733407734654065,0.0,all_failure,branch_local_only_no_cross_layout_decision_transfer
"cell|branch=four_fan_branch|fan=four_fan|env=W0_four_fan_branch|family=bank_yaw_energy_retaining|target=120p0|dir=1|start=random_stress|latency=nominal|radius=r[4.50,4.75)|speed=v[4.50,5.00)|wing_mean=ww_nan|margin=m[-0.25,0.00)",four_fan_branch,four_fan,W0_four_fan_branch,bank_yaw_energy_retaining,120.0,1,random_stress,nominal,"r[4.50,4.75)","v[4.50,5.00)",ww_nan,"m[-0.25,0.00)",1,1,0,0.0,0,0,true_safety_violation,none,119.50949312118905,119.50949312118905,-0.08041904210575312,0.0,-0.08940584617188319,0.0,all_failure,branch_local_only_no_cross_layout_decision_transfer
"cell|branch=four_fan_branch|fan=four_fan|env=W0_four_fan_branch|family=bank_yaw_energy_retaining|target=150p0|dir=-1|start=favourable|latency=nominal|radius=r[0.50,0.75)|speed=v[6.00,6.50)|wing_mean=ww_nan|margin=m[0.25,0.50)",four_fan_branch,four_fan,W0_four_fan_branch,bank_yaw_energy_retaining,150.0,-1,favourable,nominal,"r[0.50,0.75)","v[6.00,6.50)",ww_nan,"m[0.25,0.50)",1,1,0,0.0,0,0,target_miss,none,138.22971535382442,138.22971535382442,-0.3212207318701581,0.0,0.40582977360700045,0.0,all_failure,branch_local_only_no_cross_layout_decision_transfer
"cell|branch=four_fan_branch|fan=four_fan|env=W0_four_fan_branch|family=bank_yaw_energy_retaining|target=150p0|dir=-1|start=favourable|latency=nominal|radius=r[2.75,3.00)|speed=v[6.50,7.00)|wing_mean=ww_nan|margin=m[-0.25,0.00)",four_fan_branch,four_fan,W0_four_fan_branch,bank_yaw_energy_retaining,150.0,-1,favourable,nominal,"r[2.75,3.00)","v[6.50,7.00)",ww_nan,"m[-0.25,0.00)",2,2,0,0.0,0,0,true_safety_violation,none,141.253808777752,141.253808777752,-0.3619767119939703,0.0,-0.08283287847680487,0.0,all_failure,branch_local_only_no_cross_layout_decision_transfer
"cell|branch=four_fan_branch|fan=four_fan|env=W0_four_fan_branch|family=bank_yaw_energy_retaining|target=150p0|dir=-1|start=lift_sector|latency=nominal|radius=r[0.25,0.50)|speed=v[6.50,7.00)|wing_mean=ww_nan|margin=m[-0.25,0.00)",four_fan_branch,four_fan,W0_four_fan_branch,bank_yaw_energy_retaining,150.0,-1,lift_sector,nominal,"r[0.25,0.50)","v[6.50,7.00)",ww_nan,"m[-0.25,0.00)",1,1,0,0.0,0,0,true_safety_violation,none,150.02137568781862,150.02137568781862,-0.14659171896096623,0.0,-0.02071943840169066,0.0,all_failure,branch_local_only_no_cross_layout_decision_transfer
"cell|branch=four_fan_branch|fan=four_fan|env=W0_four_fan_branch|family=bank_yaw_energy_retaining|target=150p0|dir=-1|start=lift_sector|latency=nominal|radius=r[0.75,1.00)|speed=v[6.00,6.50)|wing_mean=ww_nan|margin=m[-0.25,0.00)",four_fan_branch,four_fan,W0_four_fan_branch,bank_yaw_energy_retaining,150.0,-1,lift_sector,nominal,"r[0.75,1.00)","v[6.00,6.50)",ww_nan,"m[-0.25,0.00)",1,1,0,0.0,0,0,true_safety_violation,none,150.99130199150034,150.99130199150034,-0.10977233673547637,0.0,-0.0006991157615169469,0.0,all_failure,branch_local_only_no_cross_layout_decision_transfer
"cell|branch=four_fan_branch|fan=four_fan|env=W0_four_fan_branch|family=bank_yaw_energy_retaining|target=150p0|dir=-1|start=lift_sector|latency=nominal|radius=r[0.75,1.00)|speed=v[7.00,7.50)|wing_mean=ww_nan|margin=m[-0.25,0.00)",four_fan_branch,four_fan,W0_four_fan_branch,bank_yaw_energy_retaining,150.0,-1,lift_sector,nominal,"r[0.75,1.00)","v[7.00,7.50)",ww_nan,"m[-0.25,0.00)",1,1,0,0.0,0,0,true_safety_violation,none,150.27005049020948,150.27005049020948,-0.010440256059424335,0.0,-0.07241630229122809,0.0,all_failure,branch_local_only_no_cross_layout_decision_transfer
"cell|branch=four_fan_branch|fan=four_fan|env=W0_four_fan_branch|family=bank_yaw_energy_retaining|target=150p0|dir=-1|start=mid_arena|latency=nominal|radius=r[1.50,1.75)|speed=v[7.00,7.50)|wing_mean=ww_nan|margin=m[-0.25,0.00)",four_fan_branch,four_fan,W0_four_fan_branch,bank_yaw_energy_retaining,150.0,-1,mid_arena,nominal,"r[1.50,1.75)","v[7.00,7.50)",ww_nan,"m[-0.25,0.00)",1,1,0,0.0,0,0,true_safety_violation,none,147.77338651679926,147.77338651679926,-0.21644369562083288,0.0,-0.1252049054276707,0.0,all_failure,branch_local_only_no_cross_layout_decision_transfer
"cell|branch=four_fan_branch|fan=four_fan|env=W0_four_fan_branch|family=bank_yaw_energy_retaining|target=150p0|dir=-1|start=mid_arena|latency=nominal|radius=r[1.75,2.00)|speed=v[6.50,7.00)|wing_mean=ww_nan|margin=m[-0.25,0.00)",four_fan_branch,four_fan,W0_four_fan_branch,bank_yaw_energy_retaining,150.0,-1,mid_arena,nominal,"r[1.75,2.00)","v[6.50,7.00)",ww_nan,"m[-0.25,0.00)",1,1,0,0.0,0,0,true_safety_violation,none,139.85266542234294,139.85266542234294,-0.34749246445295423,0.0,-0.024909679680584773,0.0,all_failure,branch_local_only_no_cross_layout_decision_transfer
"cell|branch=four_fan_branch|fan=four_fan|env=W0_four_fan_branch|family=bank_yaw_energy_retaining|target=150p0|dir=-1|start=random_stress|latency=nominal|radius=r[2.00,2.25)|speed=v[6.50,7.00)|wing_mean=ww_nan|margin=m[-0.25,0.00)",four_fan_branch,four_fan,W0_four_fan_branch,bank_yaw_energy_retaining,150.0,-1,random_stress,nominal,"r[2.00,2.25)","v[6.50,7.00)",ww_nan,"m[-0.25,0.00)",1,1,0,0.0,0,0,true_safety_violation,none,146.9494609830186,146.9494609830186,-0.07797336593564985,0.0,-0.0005879376298381089,0.0,all_failure,branch_local_only_no_cross_layout_decision_transfer
"cell|branch=four_fan_branch|fan=four_fan|env=W0_four_fan_branch|family=bank_yaw_energy_retaining|target=150p0|dir=-1|start=random_stress|latency=nominal|radius=r[3.75,4.00)|speed=v[6.00,6.50)|wing_mean=ww_nan|margin=m[-0.25,0.00)",four_fan_branch,four_fan,W0_four_fan_branch,bank_yaw_energy_retaining,150.0,-1,random_stress,nominal,"r[3.75,4.00)","v[6.00,6.50)",ww_nan,"m[-0.25,0.00)",1,1,0,0.0,0,0,true_safety_violation,none,139.51460400304862,139.51460400304862,-0.25643921892020405,0.0,-0.041165106515761885,0.0,all_failure,branch_local_only_no_cross_layout_decision_transfer
"cell|branch=four_fan_branch|fan=four_fan|env=W0_four_fan_branch|family=bank_yaw_energy_retaining|target=150p0|dir=1|start=favourable|latency=nominal|radius=r[0.25,0.50)|speed=v[6.00,6.50)|wing_mean=ww_nan|margin=m[-0.25,0.00)",four_fan_branch,four_fan,W0_four_fan_branch,bank_yaw_energy_retaining,150.0,1,favourable,nominal,"r[0.25,0.50)","v[6.00,6.50)",ww_nan,"m[-0.25,0.00)",1,1,0,0.0,0,0,true_safety_violation,none,142.12217635811524,142.12217635811524,-0.30180163577040453,0.0,-0.046596526962285445,0.0,all_failure,branch_local_only_no_cross_layout_decision_transfer
"cell|branch=four_fan_branch|fan=four_fan|env=W0_four_fan_branch|family=bank_yaw_energy_retaining|target=150p0|dir=1|start=favourable|latency=nominal|radius=r[1.00,1.25)|speed=v[6.50,7.00)|wing_mean=ww_nan|margin=m[-0.25,0.00)",four_fan_branch,four_fan,W0_four_fan_branch,bank_yaw_energy_retaining,150.0,1,favourable,nominal,"r[1.00,1.25)","v[6.50,7.00)",ww_nan,"m[-0.25,0.00)",1,1,0,0.0,0,0,true_safety_violation,none,148.54765618403277,148.54765618403277,-0.22180107666034887,0.0,-0.02567908472039182,0.0,all_failure,branch_local_only_no_cross_layout_decision_transfer
"cell|branch=four_fan_branch|fan=four_fan|env=W0_four_fan_branch|family=bank_yaw_energy_retaining|target=150p0|dir=1|start=favourable|latency=nominal|radius=r[1.75,2.00)|speed=v[6.00,6.50)|wing_mean=ww_nan|margin=m[-0.25,0.00)",four_fan_branch,four_fan,W0_four_fan_branch,bank_yaw_energy_retaining,150.0,1,favourable,nominal,"r[1.75,2.00)","v[6.00,6.50)",ww_nan,"m[-0.25,0.00)",1,1,0,0.0,0,0,true_safety_violation,none,142.91235580357582,142.91235580357582,-0.23902749829211212,0.0,-0.09004857914120645,0.0,all_failure,branch_local_only_no_cross_layout_decision_transfer
"cell|branch=four_fan_branch|fan=four_fan|env=W0_four_fan_branch|family=bank_yaw_energy_retaining|target=150p0|dir=1|start=lift_sector|latency=nominal|radius=r[0.25,0.50)|speed=v[5.00,5.50)|wing_mean=ww_nan|margin=m[-0.25,0.00)",four_fan_branch,four_fan,W0_four_fan_branch,bank_yaw_energy_retaining,150.0,1,lift_sector,nominal,"r[0.25,0.50)","v[5.00,5.50)",ww_nan,"m[-0.25,0.00)",1,1,0,0.0,0,0,true_safety_violation,none,146.3627277033789,146.3627277033789,-0.10788464608975579,0.0,-0.060809512925500186,0.0,all_failure,branch_local_only_no_cross_layout_decision_transfer
"cell|branch=four_fan_branch|fan=four_fan|env=W0_four_fan_branch|family=bank_yaw_energy_retaining|target=150p0|dir=1|start=lift_sector|latency=nominal|radius=r[0.75,1.00)|speed=v[5.00,5.50)|wing_mean=ww_nan|margin=m[-0.25,0.00)",four_fan_branch,four_fan,W0_four_fan_branch,bank_yaw_energy_retaining,150.0,1,lift_sector,nominal,"r[0.75,1.00)","v[5.00,5.50)",ww_nan,"m[-0.25,0.00)",1,1,0,0.0,0,0,true_safety_violation,none,149.09939023144423,149.09939023144423,-0.23786689675431694,0.0,-0.0395035833931372,0.0,all_failure,branch_local_only_no_cross_layout_decision_transfer
"cell|branch=four_fan_branch|fan=four_fan|env=W0_four_fan_branch|family=bank_yaw_energy_retaining|target=150p0|dir=1|start=lift_sector|latency=nominal|radius=r[0.75,1.00)|speed=v[6.50,7.00)|wing_mean=ww_nan|margin=m[-0.25,0.00)",four_fan_branch,four_fan,W0_four_fan_branch,bank_yaw_energy_retaining,150.0,1,lift_sector,nominal,"r[0.75,1.00)","v[6.50,7.00)",ww_nan,"m[-0.25,0.00)",1,1,0,0.0,0,0,true_safety_violation,none,143.587934289928,143.587934289928,-0.23230993877174733,0.0,-0.015582773721813048,0.0,all_failure,branch_local_only_no_cross_layout_decision_transfer
"cell|branch=four_fan_branch|fan=four_fan|env=W0_four_fan_branch|family=bank_yaw_energy_retaining|target=150p0|dir=1|start=mid_arena|latency=nominal|radius=r[1.00,1.25)|speed=v[6.00,6.50)|wing_mean=ww_nan|margin=m[-0.25,0.00)",four_fan_branch,four_fan,W0_four_fan_branch,bank_yaw_energy_retaining,150.0,1,mid_arena,nominal,"r[1.00,1.25)","v[6.00,6.50)",ww_nan,"m[-0.25,0.00)",1,1,0,0.0,0,0,true_safety_violation,none,145.70515002504965,145.70515002504965,-0.19255576893650517,0.0,-0.0637292739212949,0.0,all_failure,branch_local_only_no_cross_layout_decision_transfer
"cell|branch=four_fan_branch|fan=four_fan|env=W0_four_fan_branch|family=bank_yaw_energy_retaining|target=150p0|dir=1|start=mid_arena|latency=nominal|radius=r[1.25,1.50)|speed=v[6.50,7.00)|wing_mean=ww_nan|margin=m[-0.25,0.00)",four_fan_branch,four_fan,W0_four_fan_branch,bank_yaw_energy_retaining,150.0,1,mid_arena,nominal,"r[1.25,1.50)","v[6.50,7.00)",ww_nan,"m[-0.25,0.00)",1,1,0,0.0,0,0,true_safety_violation,none,148.77619063349252,148.77619063349252,-0.1951254658374486,0.0,-0.12425228359829976,0.0,all_failure,branch_local_only_no_cross_layout_decision_transfer
"cell|branch=four_fan_branch|fan=four_fan|env=W0_four_fan_branch|family=bank_yaw_energy_retaining|target=150p0|dir=1|start=random_stress|latency=nominal|radius=r[2.25,2.50)|speed=v[6.50,7.00)|wing_mean=ww_nan|margin=m[-0.25,0.00)",four_fan_branch,four_fan,W0_four_fan_branch,bank_yaw_energy_retaining,150.0,1,random_stress,nominal,"r[2.25,2.50)","v[6.50,7.00)",ww_nan,"m[-0.25,0.00)",1,1,0,0.0,0,0,true_safety_violation,none,143.1851711842604,143.1851711842604,-0.37628344458498564,0.0,-0.032285577914694746,0.0,all_failure,branch_local_only_no_cross_layout_decision_transfer
"cell|branch=four_fan_branch|fan=four_fan|env=W0_four_fan_branch|family=bank_yaw_energy_retaining|target=150p0|dir=1|start=random_stress|latency=nominal|radius=r[3.75,4.00)|speed=v[7.00,7.50)|wing_mean=ww_nan|margin=m[-0.25,0.00)",four_fan_branch,four_fan,W0_four_fan_branch,bank_yaw_energy_retaining,150.0,1,random_stress,nominal,"r[3.75,4.00)","v[7.00,7.50)",ww_nan,"m[-0.25,0.00)",1,1,0,0.0,0,0,true_safety_violation,none,149.72654444586098,149.72654444586098,-0.03517931045656475,0.0,-0.03858377367567667,0.0,all_failure,branch_local_only_no_cross_layout_decision_transfer
"cell|branch=four_fan_branch|fan=four_fan|env=W0_four_fan_branch|family=bank_yaw_energy_retaining|target=15p0|dir=-1|start=favourable|latency=nominal|radius=r[1.50,1.75)|speed=v[6.50,7.00)|wing_mean=ww_nan|margin=m[-0.25,0.00)",four_fan_branch,four_fan,W0_four_fan_branch,bank_yaw_energy_retaining,15.0,-1,favourable,nominal,"r[1.50,1.75)","v[6.50,7.00)",ww_nan,"m[-0.25,0.00)",1,1,0,0.0,0,0,true_safety_violation,none,10.382680395127817,10.382680395127817,-0.2301461876908708,0.0,-0.05367979844207049,0.0,all_failure,branch_local_only_no_cross_layout_decision_transfer
"cell|branch=four_fan_branch|fan=four_fan|env=W0_four_fan_branch|family=bank_yaw_energy_retaining|target=15p0|dir=-1|start=favourable|latency=nominal|radius=r[2.00,2.25)|speed=v[6.50,7.00)|wing_mean=ww_nan|margin=m[-0.25,0.00)",four_fan_branch,four_fan,W0_four_fan_branch,bank_yaw_energy_retaining,15.0,-1,favourable,nominal,"r[2.00,2.25)","v[6.50,7.00)",ww_nan,"m[-0.25,0.00)",1,1,0,0.0,0,0,true_safety_violation,none,7.729634297401759,7.729634297401759,-0.28151329992901974,0.0,-0.09251939042340407,0.0,all_failure,branch_local_only_no_cross_layout_decision_transfer
"cell|branch=four_fan_branch|fan=four_fan|env=W0_four_fan_branch|family=bank_yaw_energy_retaining|target=15p0|dir=-1|start=favourable|latency=nominal|radius=r[3.00,3.25)|speed=v[6.00,6.50)|wing_mean=ww_nan|margin=m[0.00,0.25)",four_fan_branch,four_fan,W0_four_fan_branch,bank_yaw_energy_retaining,15.0,-1,favourable,nominal,"r[3.00,3.25)","v[6.00,6.50)",ww_nan,"m[0.00,0.25)",1,1,0,0.0,0,0,target_miss,none,6.027660303800042,6.027660303800042,-0.34016857449523386,0.0,0.16776432349783166,0.0,all_failure,branch_local_only_no_cross_layout_decision_transfer
"cell|branch=four_fan_branch|fan=four_fan|env=W0_four_fan_branch|family=bank_yaw_energy_retaining|target=15p0|dir=-1|start=lift_sector|latency=nominal|radius=r[0.25,0.50)|speed=v[6.00,6.50)|wing_mean=ww_nan|margin=m[-0.25,0.00)",four_fan_branch,four_fan,W0_four_fan_branch,bank_yaw_energy_retaining,15.0,-1,lift_sector,nominal,"r[0.25,0.50)","v[6.00,6.50)",ww_nan,"m[-0.25,0.00)",1,1,0,0.0,0,0,true_safety_violation,none,14.956361170137598,14.956361170137598,-0.1688453093267146,0.0,-0.060711968426367724,0.0,all_failure,branch_local_only_no_cross_layout_decision_transfer
"cell|branch=four_fan_branch|fan=four_fan|env=W0_four_fan_branch|family=bank_yaw_energy_retaining|target=15p0|dir=-1|start=lift_sector|latency=nominal|radius=r[0.75,1.00)|speed=v[5.00,5.50)|wing_mean=ww_nan|margin=m[-0.25,0.00)",four_fan_branch,four_fan,W0_four_fan_branch,bank_yaw_energy_retaining,15.0,-1,lift_sector,nominal,"r[0.75,1.00)","v[5.00,5.50)",ww_nan,"m[-0.25,0.00)",1,1,0,0.0,0,0,true_safety_violation,none,14.947341910940168,14.947341910940168,-0.0164309318075353,0.0,-0.022535888111400837,0.0,all_failure,branch_local_only_no_cross_layout_decision_transfer
"cell|branch=four_fan_branch|fan=four_fan|env=W0_four_fan_branch|family=bank_yaw_energy_retaining|target=15p0|dir=-1|start=lift_sector|latency=nominal|radius=r[1.00,1.25)|speed=v[6.50,7.00)|wing_mean=ww_nan|margin=m[-0.25,0.00)",four_fan_branch,four_fan,W0_four_fan_branch,bank_yaw_energy_retaining,15.0,-1,lift_sector,nominal,"r[1.00,1.25)","v[6.50,7.00)",ww_nan,"m[-0.25,0.00)",1,1,0,0.0,0,0,true_safety_violation,none,9.834684169250913,9.834684169250913,-0.2342131325252863,0.0,-0.060331733356214556,0.0,all_failure,branch_local_only_no_cross_layout_decision_transfer
"cell|branch=four_fan_branch|fan=four_fan|env=W0_four_fan_branch|family=bank_yaw_energy_retaining|target=15p0|dir=-1|start=mid_arena|latency=nominal|radius=r[0.50,0.75)|speed=v[5.50,6.00)|wing_mean=ww_nan|margin=m[-0.25,0.00)",four_fan_branch,four_fan,W0_four_fan_branch,bank_yaw_energy_retaining,15.0,-1,mid_arena,nominal,"r[0.50,0.75)","v[5.50,6.00)",ww_nan,"m[-0.25,0.00)",1,1,0,0.0,0,0,true_safety_violation,none,13.387770239204578,13.387770239204578,-0.1327316064510109,0.0,-0.047375849979677476,0.0,all_failure,branch_local_only_no_cross_layout_decision_transfer
"cell|branch=four_fan_branch|fan=four_fan|env=W0_four_fan_branch|family=bank_yaw_energy_retaining|target=15p0|dir=-1|start=mid_arena|latency=nominal|radius=r[1.50,1.75)|speed=v[6.00,6.50)|wing_mean=ww_nan|margin=m[-0.25,0.00)",four_fan_branch,four_fan,W0_four_fan_branch,bank_yaw_energy_retaining,15.0,-1,mid_arena,nominal,"r[1.50,1.75)","v[6.00,6.50)",ww_nan,"m[-0.25,0.00)",1,1,0,0.0,0,0,true_safety_violation,none,7.499052804363686,7.499052804363686,-0.30087663607204984,0.0,-0.06644184752381804,0.0,all_failure,branch_local_only_no_cross_layout_decision_transfer
"cell|branch=four_fan_branch|fan=four_fan|env=W0_four_fan_branch|family=bank_yaw_energy_retaining|target=15p0|dir=-1|start=random_stress|latency=nominal|radius=r[1.25,1.50)|speed=v[7.00,7.50)|wing_mean=ww_nan|margin=m[-0.25,0.00)",four_fan_branch,four_fan,W0_four_fan_branch,bank_yaw_energy_retaining,15.0,-1,random_stress,nominal,"r[1.25,1.50)","v[7.00,7.50)",ww_nan,"m[-0.25,0.00)",1,1,0,0.0,0,0,true_safety_violation,none,12.400711636269275,12.400711636269275,-0.2533376827561957,0.0,-0.005444418305079246,0.0,all_failure,branch_local_only_no_cross_layout_decision_transfer
"cell|branch=four_fan_branch|fan=four_fan|env=W0_four_fan_branch|family=bank_yaw_energy_retaining|target=15p0|dir=-1|start=random_stress|latency=nominal|radius=r[4.25,4.50)|speed=v[6.50,7.00)|wing_mean=ww_nan|margin=m[-0.25,0.00)",four_fan_branch,four_fan,W0_four_fan_branch,bank_yaw_energy_retaining,15.0,-1,random_stress,nominal,"r[4.25,4.50)","v[6.50,7.00)",ww_nan,"m[-0.25,0.00)",1,1,0,0.0,0,0,true_safety_violation,none,13.58324758485631,13.58324758485631,-0.042388264907671225,0.0,-0.03723832869673263,0.0,all_failure,branch_local_only_no_cross_layout_decision_transfer
"cell|branch=four_fan_branch|fan=four_fan|env=W0_four_fan_branch|family=bank_yaw_energy_retaining|target=15p0|dir=1|start=favourable|latency=nominal|radius=r[1.25,1.50)|speed=v[6.00,6.50)|wing_mean=ww_nan|margin=m[-0.25,0.00)",four_fan_branch,four_fan,W0_four_fan_branch,bank_yaw_energy_retaining,15.0,1,favourable,nominal,"r[1.25,1.50)","v[6.00,6.50)",ww_nan,"m[-0.25,0.00)",1,1,0,0.0,0,0,true_safety_violation,none,8.826807381623448,8.826807381623448,-0.25829183606559214,0.0,-0.10089615623915638,0.0,all_failure,branch_local_only_no_cross_layout_decision_transfer
"cell|branch=four_fan_branch|fan=four_fan|env=W0_four_fan_branch|family=bank_yaw_energy_retaining|target=15p0|dir=1|start=favourable|latency=nominal|radius=r[2.25,2.50)|speed=v[6.00,6.50)|wing_mean=ww_nan|margin=m[0.00,0.25)",four_fan_branch,four_fan,W0_four_fan_branch,bank_yaw_energy_retaining,15.0,1,favourable,nominal,"r[2.25,2.50)","v[6.00,6.50)",ww_nan,"m[0.00,0.25)",1,1,0,0.0,0,0,target_miss,none,5.808893325522666,5.808893325522666,-0.2916242949019816,0.0,0.034549365617392525,0.0,all_failure,branch_local_only_no_cross_layout_decision_transfer
"cell|branch=four_fan_branch|fan=four_fan|env=W0_four_fan_branch|family=bank_yaw_energy_retaining|target=15p0|dir=1|start=favourable|latency=nominal|radius=r[3.25,3.50)|speed=v[6.00,6.50)|wing_mean=ww_nan|margin=m[0.25,0.50)",four_fan_branch,four_fan,W0_four_fan_branch,bank_yaw_energy_retaining,15.0,1,favourable,nominal,"r[3.25,3.50)","v[6.00,6.50)",ww_nan,"m[0.25,0.50)",1,1,0,0.0,0,0,target_miss,none,9.036259188330732,9.036259188330732,-0.3138997112466124,0.0,0.4157614039073859,0.0,all_failure,branch_local_only_no_cross_layout_decision_transfer
"cell|branch=four_fan_branch|fan=four_fan|env=W0_four_fan_branch|family=bank_yaw_energy_retaining|target=15p0|dir=1|start=lift_sector|latency=nominal|radius=r[0.00,0.25)|speed=v[5.50,6.00)|wing_mean=ww_nan|margin=m[-0.25,0.00)",four_fan_branch,four_fan,W0_four_fan_branch,bank_yaw_energy_retaining,15.0,1,lift_sector,nominal,"r[0.00,0.25)","v[5.50,6.00)",ww_nan,"m[-0.25,0.00)",1,1,0,0.0,0,0,true_safety_violation,none,14.93960853436147,14.93960853436147,-0.07680557370617258,0.0,-0.06431472655434423,0.0,all_failure,branch_local_only_no_cross_layout_decision_transfer
"cell|branch=four_fan_branch|fan=four_fan|env=W0_four_fan_branch|family=bank_yaw_energy_retaining|target=15p0|dir=1|start=lift_sector|latency=nominal|radius=r[0.75,1.00)|speed=v[5.50,6.00)|wing_mean=ww_nan|margin=m[-0.25,0.00)",four_fan_branch,four_fan,W0_four_fan_branch,bank_yaw_energy_retaining,15.0,1,lift_sector,nominal,"r[0.75,1.00)","v[5.50,6.00)",ww_nan,"m[-0.25,0.00)",1,1,0,0.0,0,0,true_safety_violation,none,15.289311471518417,15.289311471518417,-0.005272988335767614,0.0,-0.06026441225413137,0.0,all_failure,branch_local_only_no_cross_layout_decision_transfer
"cell|branch=four_fan_branch|fan=four_fan|env=W0_four_fan_branch|family=bank_yaw_energy_retaining|target=15p0|dir=1|start=lift_sector|latency=nominal|radius=r[1.00,1.25)|speed=v[5.50,6.00)|wing_mean=ww_nan|margin=m[-0.25,0.00)",four_fan_branch,four_fan,W0_four_fan_branch,bank_yaw_energy_retaining,15.0,1,lift_sector,nominal,"r[1.00,1.25)","v[5.50,6.00)",ww_nan,"m[-0.25,0.00)",1,1,0,0.0,0,0,true_safety_violation,none,7.72762621761953,7.72762621761953,-0.2281142279324082,0.0,-0.09081392978822644,0.0,all_failure,branch_local_only_no_cross_layout_decision_transfer
"cell|branch=four_fan_branch|fan=four_fan|env=W0_four_fan_branch|family=bank_yaw_energy_retaining|target=15p0|dir=1|start=mid_arena|latency=nominal|radius=r[1.00,1.25)|speed=v[6.50,7.00)|wing_mean=ww_nan|margin=m[-0.25,0.00)",four_fan_branch,four_fan,W0_four_fan_branch,bank_yaw_energy_retaining,15.0,1,mid_arena,nominal,"r[1.00,1.25)","v[6.50,7.00)",ww_nan,"m[-0.25,0.00)",1,1,0,0.0,0,0,true_safety_violation,none,11.895197054411184,11.895197054411184,-0.24550610744889845,0.0,-0.02708515632118136,0.0,all_failure,branch_local_only_no_cross_layout_decision_transfer
"cell|branch=four_fan_branch|fan=four_fan|env=W0_four_fan_branch|family=bank_yaw_energy_retaining|target=15p0|dir=1|start=mid_arena|latency=nominal|radius=r[2.50,2.75)|speed=v[6.00,6.50)|wing_mean=ww_nan|margin=m[-0.25,0.00)",four_fan_branch,four_fan,W0_four_fan_branch,bank_yaw_energy_retaining,15.0,1,mid_arena,nominal,"r[2.50,2.75)","v[6.00,6.50)",ww_nan,"m[-0.25,0.00)",1,1,0,0.0,0,0,true_safety_violation,none,12.610668583634034,12.610668583634034,-0.19162379386240858,0.0,-0.04979372579691255,0.0,all_failure,branch_local_only_no_cross_layout_decision_transfer
"cell|branch=four_fan_branch|fan=four_fan|env=W0_four_fan_branch|family=bank_yaw_energy_retaining|target=15p0|dir=1|start=random_stress|latency=nominal|radius=r[2.75,3.00)|speed=v[6.50,7.00)|wing_mean=ww_nan|margin=m[-0.25,0.00)",four_fan_branch,four_fan,W0_four_fan_branch,bank_yaw_energy_retaining,15.0,1,random_stress,nominal,"r[2.75,3.00)","v[6.50,7.00)",ww_nan,"m[-0.25,0.00)",1,1,0,0.0,0,0,true_safety_violation,none,14.311281812651615,14.311281812651615,-0.04030986555661098,0.0,-0.10324713922520434,0.0,all_failure,branch_local_only_no_cross_layout_decision_transfer
"cell|branch=four_fan_branch|fan=four_fan|env=W0_four_fan_branch|family=bank_yaw_energy_retaining|target=15p0|dir=1|start=random_stress|latency=nominal|radius=r[3.75,4.00)|speed=v[6.00,6.50)|wing_mean=ww_nan|margin=m[-0.25,0.00)",four_fan_branch,four_fan,W0_four_fan_branch,bank_yaw_energy_retaining,15.0,1,random_stress,nominal,"r[3.75,4.00)","v[6.00,6.50)",ww_nan,"m[-0.25,0.00)",1,1,0,0.0,0,0,true_safety_violation,none,16.14055029270878,16.14055029270878,-0.036610804856256784,0.0,-0.0985804638365136,0.0,all_failure,branch_local_only_no_cross_layout_decision_transfer
"cell|branch=four_fan_branch|fan=four_fan|env=W0_four_fan_branch|family=bank_yaw_energy_retaining|target=180p0|dir=-1|start=favourable|latency=nominal|radius=r[1.00,1.25)|speed=v[6.50,7.00)|wing_mean=ww_nan|margin=m[-0.25,0.00)",four_fan_branch,four_fan,W0_four_fan_branch,bank_yaw_energy_retaining,180.0,-1,favourable,nominal,"r[1.00,1.25)","v[6.50,7.00)",ww_nan,"m[-0.25,0.00)",2,2,0,0.0,0,0,true_safety_violation,none,176.86975857771262,176.86975857771262,-0.24876954147379648,0.0,-0.09648696745627561,0.0,all_failure,branch_local_only_no_cross_layout_decision_transfer
"cell|branch=four_fan_branch|fan=four_fan|env=W0_four_fan_branch|family=bank_yaw_energy_retaining|target=180p0|dir=-1|start=favourable|latency=nominal|radius=r[2.00,2.25)|speed=v[6.00,6.50)|wing_mean=ww_nan|margin=m[-0.25,0.00)",four_fan_branch,four_fan,W0_four_fan_branch,bank_yaw_energy_retaining,180.0,-1,favourable,nominal,"r[2.00,2.25)","v[6.00,6.50)",ww_nan,"m[-0.25,0.00)",1,1,0,0.0,0,0,true_safety_violation,none,173.94665084690988,173.94665084690988,-0.2524664268383363,0.0,-0.0361654774558815,0.0,all_failure,branch_local_only_no_cross_layout_decision_transfer
"cell|branch=four_fan_branch|fan=four_fan|env=W0_four_fan_branch|family=bank_yaw_energy_retaining|target=180p0|dir=-1|start=lift_sector|latency=nominal|radius=r[0.00,0.25)|speed=v[6.50,7.00)|wing_mean=ww_nan|margin=m[-0.25,0.00)",four_fan_branch,four_fan,W0_four_fan_branch,bank_yaw_energy_retaining,180.0,-1,lift_sector,nominal,"r[0.00,0.25)","v[6.50,7.00)",ww_nan,"m[-0.25,0.00)",1,1,0,0.0,0,0,true_safety_violation,none,168.38338422473004,168.38338422473004,-0.30316337798652704,0.0,-0.04321741024066483,0.0,all_failure,branch_local_only_no_cross_layout_decision_transfer
"cell|branch=four_fan_branch|fan=four_fan|env=W0_four_fan_branch|family=bank_yaw_energy_retaining|target=180p0|dir=-1|start=lift_sector|latency=nominal|radius=r[0.75,1.00)|speed=v[5.00,5.50)|wing_mean=ww_nan|margin=m[-0.25,0.00)",four_fan_branch,four_fan,W0_four_fan_branch,bank_yaw_energy_retaining,180.0,-1,lift_sector,nominal,"r[0.75,1.00)","v[5.00,5.50)",ww_nan,"m[-0.25,0.00)",1,1,0,0.0,0,0,true_safety_violation,none,179.23029156098005,179.23029156098005,-0.19135920390132366,0.0,-0.020693129649121955,0.0,all_failure,branch_local_only_no_cross_layout_decision_transfer
"cell|branch=four_fan_branch|fan=four_fan|env=W0_four_fan_branch|family=bank_yaw_energy_retaining|target=180p0|dir=-1|start=lift_sector|latency=nominal|radius=r[0.75,1.00)|speed=v[6.50,7.00)|wing_mean=ww_nan|margin=m[-0.25,0.00)",four_fan_branch,four_fan,W0_four_fan_branch,bank_yaw_energy_retaining,180.0,-1,lift_sector,nominal,"r[0.75,1.00)","v[6.50,7.00)",ww_nan,"m[-0.25,0.00)",1,1,0,0.0,0,0,true_safety_violation,none,179.07426862448955,179.07426862448955,-0.04012767893694402,0.0,-0.0024975833466349684,0.0,all_failure,branch_local_only_no_cross_layout_decision_transfer
"cell|branch=four_fan_branch|fan=four_fan|env=W0_four_fan_branch|family=bank_yaw_energy_retaining|target=180p0|dir=-1|start=mid_arena|latency=nominal|radius=r[1.25,1.50)|speed=v[5.50,6.00)|wing_mean=ww_nan|margin=m[-0.25,0.00)",four_fan_branch,four_fan,W0_four_fan_branch,bank_yaw_energy_retaining,180.0,-1,mid_arena,nominal,"r[1.25,1.50)","v[5.50,6.00)",ww_nan,"m[-0.25,0.00)",1,1,0,0.0,0,0,true_safety_violation,none,174.847814082265,174.847814082265,-0.2075743520241513,0.0,-0.029865034343751873,0.0,all_failure,branch_local_only_no_cross_layout_decision_transfer
"cell|branch=four_fan_branch|fan=four_fan|env=W0_four_fan_branch|family=bank_yaw_energy_retaining|target=180p0|dir=-1|start=mid_arena|latency=nominal|radius=r[2.00,2.25)|speed=v[6.50,7.00)|wing_mean=ww_nan|margin=m[-0.25,0.00)",four_fan_branch,four_fan,W0_four_fan_branch,bank_yaw_energy_retaining,180.0,-1,mid_arena,nominal,"r[2.00,2.25)","v[6.50,7.00)",ww_nan,"m[-0.25,0.00)",1,1,0,0.0,0,0,true_safety_violation,none,172.10943122533695,172.10943122533695,-0.29004544849030456,0.0,-0.07083806902313228,0.0,all_failure,branch_local_only_no_cross_layout_decision_transfer
"cell|branch=four_fan_branch|fan=four_fan|env=W0_four_fan_branch|family=bank_yaw_energy_retaining|target=180p0|dir=-1|start=random_stress|latency=nominal|radius=r[1.00,1.25)|speed=v[6.00,6.50)|wing_mean=ww_nan|margin=m[0.00,0.25)",four_fan_branch,four_fan,W0_four_fan_branch,bank_yaw_energy_retaining,180.0,-1,random_stress,nominal,"r[1.00,1.25)","v[6.00,6.50)",ww_nan,"m[0.00,0.25)",1,1,0,0.0,0,0,target_miss,none,177.65133970281346,177.65133970281346,-0.30215219445363894,0.0,0.23414051300604743,0.0,all_failure,branch_local_only_no_cross_layout_decision_transfer
"cell|branch=four_fan_branch|fan=four_fan|env=W0_four_fan_branch|family=bank_yaw_energy_retaining|target=180p0|dir=-1|start=random_stress|latency=nominal|radius=r[2.25,2.50)|speed=v[7.00,7.50)|wing_mean=ww_nan|margin=m[-0.25,0.00)",four_fan_branch,four_fan,W0_four_fan_branch,bank_yaw_energy_retaining,180.0,-1,random_stress,nominal,"r[2.25,2.50)","v[7.00,7.50)",ww_nan,"m[-0.25,0.00)",1,1,0,0.0,0,0,true_safety_violation,none,170.40528206591617,170.40528206591617,-0.2600657343358028,0.0,-0.02328129367863241,0.0,all_failure,branch_local_only_no_cross_layout_decision_transfer
"cell|branch=four_fan_branch|fan=four_fan|env=W0_four_fan_branch|family=bank_yaw_energy_retaining|target=180p0|dir=1|start=favourable|latency=nominal|radius=r[1.50,1.75)|speed=v[6.50,7.00)|wing_mean=ww_nan|margin=m[-0.25,0.00)",four_fan_branch,four_fan,W0_four_fan_branch,bank_yaw_energy_retaining,180.0,1,favourable,nominal,"r[1.50,1.75)","v[6.50,7.00)",ww_nan,"m[-0.25,0.00)",1,1,0,0.0,0,0,true_safety_violation,none,176.64606712978414,176.64606712978414,-0.1983907418701083,0.0,-0.12079830390488233,0.0,all_failure,branch_local_only_no_cross_layout_decision_transfer
"cell|branch=four_fan_branch|fan=four_fan|env=W0_four_fan_branch|family=bank_yaw_energy_retaining|target=180p0|dir=1|start=favourable|latency=nominal|radius=r[3.00,3.25)|speed=v[6.50,7.00)|wing_mean=ww_nan|margin=m[0.25,0.50)",four_fan_branch,four_fan,W0_four_fan_branch,bank_yaw_energy_retaining,180.0,1,favourable,nominal,"r[3.00,3.25)","v[6.50,7.00)",ww_nan,"m[0.25,0.50)",1,1,0,0.0,0,0,target_miss,none,173.62125390737938,173.62125390737938,-0.3429268348329182,0.0,0.3296542348873412,0.0,all_failure,branch_local_only_no_cross_layout_decision_transfer
"cell|branch=four_fan_branch|fan=four_fan|env=W0_four_fan_branch|family=bank_yaw_energy_retaining|target=180p0|dir=1|start=favourable|latency=nominal|radius=r[3.50,3.75)|speed=v[6.50,7.00)|wing_mean=ww_nan|margin=m[0.25,0.50)",four_fan_branch,four_fan,W0_four_fan_branch,bank_yaw_energy_retaining,180.0,1,favourable,nominal,"r[3.50,3.75)","v[6.50,7.00)",ww_nan,"m[0.25,0.50)",1,1,0,0.0,0,0,target_miss,none,173.6937971548225,173.6937971548225,-0.37209934431176217,0.0,0.3156798625317139,0.0,all_failure,branch_local_only_no_cross_layout_decision_transfer
"cell|branch=four_fan_branch|fan=four_fan|env=W0_four_fan_branch|family=bank_yaw_energy_retaining|target=180p0|dir=1|start=lift_sector|latency=nominal|radius=r[0.25,0.50)|speed=v[6.00,6.50)|wing_mean=ww_nan|margin=m[-0.25,0.00)",four_fan_branch,four_fan,W0_four_fan_branch,bank_yaw_energy_retaining,180.0,1,lift_sector,nominal,"r[0.25,0.50)","v[6.00,6.50)",ww_nan,"m[-0.25,0.00)",1,1,0,0.0,0,0,true_safety_violation,none,179.98741310518153,179.98741310518153,-0.07926109251177715,0.0,-0.006590267886982026,0.0,all_failure,branch_local_only_no_cross_layout_decision_transfer
"cell|branch=four_fan_branch|fan=four_fan|env=W0_four_fan_branch|family=bank_yaw_energy_retaining|target=180p0|dir=1|start=lift_sector|latency=nominal|radius=r[0.75,1.00)|speed=v[6.00,6.50)|wing_mean=ww_nan|margin=m[-0.25,0.00)",four_fan_branch,four_fan,W0_four_fan_branch,bank_yaw_energy_retaining,180.0,1,lift_sector,nominal,"r[0.75,1.00)","v[6.00,6.50)",ww_nan,"m[-0.25,0.00)",1,1,0,0.0,0,0,true_safety_violation,none,179.45388639206698,179.45388639206698,-0.11923917562652697,0.0,-0.011787786433564262,0.0,all_failure,branch_local_only_no_cross_layout_decision_transfer
"cell|branch=four_fan_branch|fan=four_fan|env=W0_four_fan_branch|family=bank_yaw_energy_retaining|target=180p0|dir=1|start=lift_sector|latency=nominal|radius=r[1.00,1.25)|speed=v[5.50,6.00)|wing_mean=ww_nan|margin=m[-0.25,0.00)",four_fan_branch,four_fan,W0_four_fan_branch,bank_yaw_energy_retaining,180.0,1,lift_sector,nominal,"r[1.00,1.25)","v[5.50,6.00)",ww_nan,"m[-0.25,0.00)",1,1,0,0.0,0,0,true_safety_violation,none,178.70384079551556,178.70384079551556,-0.18774320997548966,0.0,-0.023826123063095395,0.0,all_failure,branch_local_only_no_cross_layout_decision_transfer
"cell|branch=four_fan_branch|fan=four_fan|env=W0_four_fan_branch|family=bank_yaw_energy_retaining|target=180p0|dir=1|start=mid_arena|latency=nominal|radius=r[1.50,1.75)|speed=v[6.00,6.50)|wing_mean=ww_nan|margin=m[-0.25,0.00)",four_fan_branch,four_fan,W0_four_fan_branch,bank_yaw_energy_retaining,180.0,1,mid_arena,nominal,"r[1.50,1.75)","v[6.00,6.50)",ww_nan,"m[-0.25,0.00)",1,1,0,0.0,0,0,true_safety_violation,none,178.51861095692306,178.51861095692306,-0.13694673531494939,0.0,-0.05702970075247027,0.0,all_failure,branch_local_only_no_cross_layout_decision_transfer
"cell|branch=four_fan_branch|fan=four_fan|env=W0_four_fan_branch|family=bank_yaw_energy_retaining|target=180p0|dir=1|start=mid_arena|latency=nominal|radius=r[3.00,3.25)|speed=v[6.50,7.00)|wing_mean=ww_nan|margin=m[-0.25,0.00)",four_fan_branch,four_fan,W0_four_fan_branch,bank_yaw_energy_retaining,180.0,1,mid_arena,nominal,"r[3.00,3.25)","v[6.50,7.00)",ww_nan,"m[-0.25,0.00)",1,1,0,0.0,0,0,true_safety_violation,none,176.51139083157204,176.51139083157204,-0.25711463770689136,0.0,-0.07094590007197701,0.0,all_failure,branch_local_only_no_cross_layout_decision_transfer
"cell|branch=four_fan_branch|fan=four_fan|env=W0_four_fan_branch|family=bank_yaw_energy_retaining|target=180p0|dir=1|start=random_stress|latency=nominal|radius=r[3.00,3.25)|speed=v[5.50,6.00)|wing_mean=ww_nan|margin=m[-0.25,0.00)",four_fan_branch,four_fan,W0_four_fan_branch,bank_yaw_energy_retaining,180.0,1,random_stress,nominal,"r[3.00,3.25)","v[5.50,6.00)",ww_nan,"m[-0.25,0.00)",1,1,0,0.0,0,0,true_safety_violation,none,171.0750119247029,171.0750119247029,-0.2199072706073153,0.0,-0.01377012219116458,0.0,all_failure,branch_local_only_no_cross_layout_decision_transfer
"cell|branch=four_fan_branch|fan=four_fan|env=W0_four_fan_branch|family=bank_yaw_energy_retaining|target=180p0|dir=1|start=random_stress|latency=nominal|radius=r[3.50,3.75)|speed=v[7.00,7.50)|wing_mean=ww_nan|margin=m[-0.25,0.00)",four_fan_branch,four_fan,W0_four_fan_branch,bank_yaw_energy_retaining,180.0,1,random_stress,nominal,"r[3.50,3.75)","v[7.00,7.50)",ww_nan,"m[-0.25,0.00)",1,1,0,0.0,0,0,true_safety_violation,none,180.76964709283206,180.76964709283206,-0.06202995786674048,0.0,-0.038763002186350155,0.0,all_failure,branch_local_only_no_cross_layout_decision_transfer
"cell|branch=four_fan_branch|fan=four_fan|env=W0_four_fan_branch|family=bank_yaw_energy_retaining|target=30p0|dir=-1|start=favourable|latency=nominal|radius=r[0.50,0.75)|speed=v[6.00,6.50)|wing_mean=ww_nan|margin=m[-0.25,0.00)",four_fan_branch,four_fan,W0_four_fan_branch,bank_yaw_energy_retaining,30.0,-1,favourable,nominal,"r[0.50,0.75)","v[6.00,6.50)",ww_nan,"m[-0.25,0.00)",1,1,0,0.0,0,0,true_safety_violation,none,20.64933490506271,20.64933490506271,-0.2871508030596823,0.0,-0.01547086829719646,0.0,all_failure,branch_local_only_no_cross_layout_decision_transfer
"cell|branch=four_fan_branch|fan=four_fan|env=W0_four_fan_branch|family=bank_yaw_energy_retaining|target=30p0|dir=-1|start=favourable|latency=nominal|radius=r[1.50,1.75)|speed=v[6.00,6.50)|wing_mean=ww_nan|margin=m[0.25,0.50)",four_fan_branch,four_fan,W0_four_fan_branch,bank_yaw_energy_retaining,30.0,-1,favourable,nominal,"r[1.50,1.75)","v[6.00,6.50)",ww_nan,"m[0.25,0.50)",1,1,0,0.0,0,0,target_miss,none,21.82887601581318,21.82887601581318,-0.3327192618479957,0.0,0.44378657615080375,0.0,all_failure,branch_local_only_no_cross_layout_decision_transfer
"cell|branch=four_fan_branch|fan=four_fan|env=W0_four_fan_branch|family=bank_yaw_energy_retaining|target=30p0|dir=-1|start=favourable|latency=nominal|radius=r[1.75,2.00)|speed=v[6.00,6.50)|wing_mean=ww_nan|margin=m[0.25,0.50)",four_fan_branch,four_fan,W0_four_fan_branch,bank_yaw_energy_retaining,30.0,-1,favourable,nominal,"r[1.75,2.00)","v[6.00,6.50)",ww_nan,"m[0.25,0.50)",1,1,0,0.0,0,0,target_miss,none,20.62317895990854,20.62317895990854,-0.33981305120863814,0.0,0.27291054910291823,0.0,all_failure,branch_local_only_no_cross_layout_decision_transfer
"cell|branch=four_fan_branch|fan=four_fan|env=W0_four_fan_branch|family=bank_yaw_energy_retaining|target=30p0|dir=-1|start=lift_sector|latency=nominal|radius=r[0.00,0.25)|speed=v[6.50,7.00)|wing_mean=ww_nan|margin=m[-0.25,0.00)",four_fan_branch,four_fan,W0_four_fan_branch,bank_yaw_energy_retaining,30.0,-1,lift_sector,nominal,"r[0.00,0.25)","v[6.50,7.00)",ww_nan,"m[-0.25,0.00)",1,1,0,0.0,0,0,true_safety_violation,none,28.789100191807705,28.789100191807705,-0.18333348837141106,0.0,-0.020545027012052408,0.0,all_failure,branch_local_only_no_cross_layout_decision_transfer
"cell|branch=four_fan_branch|fan=four_fan|env=W0_four_fan_branch|family=bank_yaw_energy_retaining|target=30p0|dir=-1|start=lift_sector|latency=nominal|radius=r[0.50,0.75)|speed=v[6.50,7.00)|wing_mean=ww_nan|margin=m[-0.25,0.00)",four_fan_branch,four_fan,W0_four_fan_branch,bank_yaw_energy_retaining,30.0,-1,lift_sector,nominal,"r[0.50,0.75)","v[6.50,7.00)",ww_nan,"m[-0.25,0.00)",1,1,0,0.0,0,0,true_safety_violation,none,26.929557731548535,26.929557731548535,-0.2965395731521716,0.0,-0.007193450859301009,0.0,all_failure,branch_local_only_no_cross_layout_decision_transfer
"cell|branch=four_fan_branch|fan=four_fan|env=W0_four_fan_branch|family=bank_yaw_energy_retaining|target=30p0|dir=-1|start=lift_sector|latency=nominal|radius=r[0.75,1.00)|speed=v[5.00,5.50)|wing_mean=ww_nan|margin=m[0.00,0.25)",four_fan_branch,four_fan,W0_four_fan_branch,bank_yaw_energy_retaining,30.0,-1,lift_sector,nominal,"r[0.75,1.00)","v[5.00,5.50)",ww_nan,"m[0.00,0.25)",1,1,0,0.0,0,0,target_miss,none,22.475154291000017,22.475154291000017,-0.25892013753118714,0.0,0.006172112399243979,0.0,all_failure,branch_local_only_no_cross_layout_decision_transfer
"cell|branch=four_fan_branch|fan=four_fan|env=W0_four_fan_branch|family=bank_yaw_energy_retaining|target=30p0|dir=-1|start=mid_arena|latency=nominal|radius=r[0.25,0.50)|speed=v[6.50,7.00)|wing_mean=ww_nan|margin=m[-0.25,0.00)",four_fan_branch,four_fan,W0_four_fan_branch,bank_yaw_energy_retaining,30.0,-1,mid_arena,nominal,"r[0.25,0.50)","v[6.50,7.00)",ww_nan,"m[-0.25,0.00)",1,1,0,0.0,0,0,true_safety_violation,none,29.040206934132996,29.040206934132996,-0.19672715972827604,0.0,-0.0014343043605327677,0.0,all_failure,branch_local_only_no_cross_layout_decision_transfer
"cell|branch=four_fan_branch|fan=four_fan|env=W0_four_fan_branch|family=bank_yaw_energy_retaining|target=30p0|dir=-1|start=mid_arena|latency=nominal|radius=r[2.25,2.50)|speed=v[6.00,6.50)|wing_mean=ww_nan|margin=m[-0.25,0.00)",four_fan_branch,four_fan,W0_four_fan_branch,bank_yaw_energy_retaining,30.0,-1,mid_arena,nominal,"r[2.25,2.50)","v[6.00,6.50)",ww_nan,"m[-0.25,0.00)",1,1,0,0.0,0,0,true_safety_violation,none,20.628685572888028,20.628685572888028,-0.2629357425086254,0.0,-0.03367497398812258,0.0,all_failure,branch_local_only_no_cross_layout_decision_transfer
"cell|branch=four_fan_branch|fan=four_fan|env=W0_four_fan_branch|family=bank_yaw_energy_retaining|target=30p0|dir=-1|start=random_stress|latency=nominal|radius=r[1.75,2.00)|speed=v[5.00,5.50)|wing_mean=ww_nan|margin=m[-0.25,0.00)",four_fan_branch,four_fan,W0_four_fan_branch,bank_yaw_energy_retaining,30.0,-1,random_stress,nominal,"r[1.75,2.00)","v[5.00,5.50)",ww_nan,"m[-0.25,0.00)",1,1,0,0.0,0,0,true_safety_violation,none,29.514304958142873,29.514304958142873,-0.1850457314319396,0.0,-0.000850122272832543,0.0,all_failure,branch_local_only_no_cross_layout_decision_transfer
"cell|branch=four_fan_branch|fan=four_fan|env=W0_four_fan_branch|family=bank_yaw_energy_retaining|target=30p0|dir=-1|start=random_stress|latency=nominal|radius=r[2.50,2.75)|speed=v[5.50,6.00)|wing_mean=ww_nan|margin=m[-0.25,0.00)",four_fan_branch,four_fan,W0_four_fan_branch,bank_yaw_energy_retaining,30.0,-1,random_stress,nominal,"r[2.50,2.75)","v[5.50,6.00)",ww_nan,"m[-0.25,0.00)",1,1,0,0.0,0,0,true_safety_violation,none,29.78947509570731,29.78947509570731,-0.15514276936815152,0.0,-0.012456055794128881,0.0,all_failure,branch_local_only_no_cross_layout_decision_transfer
"cell|branch=four_fan_branch|fan=four_fan|env=W0_four_fan_branch|family=bank_yaw_energy_retaining|target=30p0|dir=1|start=favourable|latency=nominal|radius=r[1.75,2.00)|speed=v[6.00,6.50)|wing_mean=ww_nan|margin=m[-0.25,0.00)",four_fan_branch,four_fan,W0_four_fan_branch,bank_yaw_energy_retaining,30.0,1,favourable,nominal,"r[1.75,2.00)","v[6.00,6.50)",ww_nan,"m[-0.25,0.00)",1,1,0,0.0,0,0,true_safety_violation,none,22.411454594857297,22.411454594857297,-0.32526765064209506,0.0,-0.09560092439031642,0.0,all_failure,branch_local_only_no_cross_layout_decision_transfer
"cell|branch=four_fan_branch|fan=four_fan|env=W0_four_fan_branch|family=bank_yaw_energy_retaining|target=30p0|dir=1|start=favourable|latency=nominal|radius=r[2.25,2.50)|speed=v[6.00,6.50)|wing_mean=ww_nan|margin=m[-0.25,0.00)",four_fan_branch,four_fan,W0_four_fan_branch,bank_yaw_energy_retaining,30.0,1,favourable,nominal,"r[2.25,2.50)","v[6.00,6.50)",ww_nan,"m[-0.25,0.00)",1,1,0,0.0,0,0,true_safety_violation,none,27.45704904270444,27.45704904270444,-0.19766991131868705,0.0,-0.10754253786313761,0.0,all_failure,branch_local_only_no_cross_layout_decision_transfer
"cell|branch=four_fan_branch|fan=four_fan|env=W0_four_fan_branch|family=bank_yaw_energy_retaining|target=30p0|dir=1|start=favourable|latency=nominal|radius=r[3.00,3.25)|speed=v[6.50,7.00)|wing_mean=ww_nan|margin=m[0.00,0.25)",four_fan_branch,four_fan,W0_four_fan_branch,bank_yaw_energy_retaining,30.0,1,favourable,nominal,"r[3.00,3.25)","v[6.50,7.00)",ww_nan,"m[0.00,0.25)",1,1,0,0.0,0,0,target_miss,none,23.248633522912666,23.248633522912666,-0.39273438535642313,0.0,0.22926180400906837,0.0,all_failure,branch_local_only_no_cross_layout_decision_transfer
"cell|branch=four_fan_branch|fan=four_fan|env=W0_four_fan_branch|family=bank_yaw_energy_retaining|target=30p0|dir=1|start=lift_sector|latency=nominal|radius=r[0.00,0.25)|speed=v[5.50,6.00)|wing_mean=ww_nan|margin=m[-0.25,0.00)",four_fan_branch,four_fan,W0_four_fan_branch,bank_yaw_energy_retaining,30.0,1,lift_sector,nominal,"r[0.00,0.25)","v[5.50,6.00)",ww_nan,"m[-0.25,0.00)",1,1,0,0.0,0,0,true_safety_violation,none,27.923450494856056,27.923450494856056,-0.2694463494593782,0.0,-0.030264576190420556,0.0,all_failure,branch_local_only_no_cross_layout_decision_transfer
"cell|branch=four_fan_branch|fan=four_fan|env=W0_four_fan_branch|family=bank_yaw_energy_retaining|target=30p0|dir=1|start=lift_sector|latency=nominal|radius=r[0.75,1.00)|speed=v[5.00,5.50)|wing_mean=ww_nan|margin=m[0.00,0.25)",four_fan_branch,four_fan,W0_four_fan_branch,bank_yaw_energy_retaining,30.0,1,lift_sector,nominal,"r[0.75,1.00)","v[5.00,5.50)",ww_nan,"m[0.00,0.25)",1,1,0,0.0,0,0,target_miss,none,29.115839150406103,29.115839150406103,-0.24421953584792444,0.0,0.09431106018576951,0.0,all_failure,branch_local_only_no_cross_layout_decision_transfer
"cell|branch=four_fan_branch|fan=four_fan|env=W0_four_fan_branch|family=bank_yaw_energy_retaining|target=30p0|dir=1|start=lift_sector|latency=nominal|radius=r[0.75,1.00)|speed=v[6.00,6.50)|wing_mean=ww_nan|margin=m[-0.25,0.00)",four_fan_branch,four_fan,W0_four_fan_branch,bank_yaw_energy_retaining,30.0,1,lift_sector,nominal,"r[0.75,1.00)","v[6.00,6.50)",ww_nan,"m[-0.25,0.00)",1,1,0,0.0,0,0,true_safety_violation,none,31.71391395393607,31.71391395393607,-0.0961511116793079,0.0,-0.09520426040743724,0.0,all_failure,branch_local_only_no_cross_layout_decision_transfer
"cell|branch=four_fan_branch|fan=four_fan|env=W0_four_fan_branch|family=bank_yaw_energy_retaining|target=30p0|dir=1|start=mid_arena|latency=nominal|radius=r[0.25,0.50)|speed=v[6.00,6.50)|wing_mean=ww_nan|margin=m[-0.25,0.00)",four_fan_branch,four_fan,W0_four_fan_branch,bank_yaw_energy_retaining,30.0,1,mid_arena,nominal,"r[0.25,0.50)","v[6.00,6.50)",ww_nan,"m[-0.25,0.00)",1,1,0,0.0,0,0,true_safety_violation,none,29.42851273613096,29.42851273613096,-0.12106503028132742,0.0,-0.0169827256884032,0.0,all_failure,branch_local_only_no_cross_layout_decision_transfer
"cell|branch=four_fan_branch|fan=four_fan|env=W0_four_fan_branch|family=bank_yaw_energy_retaining|target=30p0|dir=1|start=mid_arena|latency=nominal|radius=r[2.75,3.00)|speed=v[5.50,6.00)|wing_mean=ww_nan|margin=m[-0.25,0.00)",four_fan_branch,four_fan,W0_four_fan_branch,bank_yaw_energy_retaining,30.0,1,mid_arena,nominal,"r[2.75,3.00)","v[5.50,6.00)",ww_nan,"m[-0.25,0.00)",1,1,0,0.0,0,0,true_safety_violation,none,21.363894988672058,21.363894988672058,-0.28641764173943374,0.0,-0.016366624992722123,0.0,all_failure,branch_local_only_no_cross_layout_decision_transfer
"cell|branch=four_fan_branch|fan=four_fan|env=W0_four_fan_branch|family=bank_yaw_energy_retaining|target=30p0|dir=1|start=random_stress|latency=nominal|radius=r[3.00,3.25)|speed=v[6.50,7.00)|wing_mean=ww_nan|margin=m[-0.25,0.00)",four_fan_branch,four_fan,W0_four_fan_branch,bank_yaw_energy_retaining,30.0,1,random_stress,nominal,"r[3.00,3.25)","v[6.50,7.00)",ww_nan,"m[-0.25,0.00)",1,1,0,0.0,0,0,true_safety_violation,none,23.81841406492518,23.81841406492518,-0.33391806859193807,0.0,-0.09702031505299136,0.0,all_failure,branch_local_only_no_cross_layout_decision_transfer
"cell|branch=four_fan_branch|fan=four_fan|env=W0_four_fan_branch|family=bank_yaw_energy_retaining|target=30p0|dir=1|start=random_stress|latency=nominal|radius=r[3.75,4.00)|speed=v[6.00,6.50)|wing_mean=ww_nan|margin=m[-0.25,0.00)",four_fan_branch,four_fan,W0_four_fan_branch,bank_yaw_energy_retaining,30.0,1,random_stress,nominal,"r[3.75,4.00)","v[6.00,6.50)",ww_nan,"m[-0.25,0.00)",1,1,0,0.0,0,0,true_safety_violation,none,29.746283824159036,29.746283824159036,-0.044424670605712535,0.0,-0.000973769370772537,0.0,all_failure,branch_local_only_no_cross_layout_decision_transfer
"cell|branch=four_fan_branch|fan=four_fan|env=W0_four_fan_branch|family=bank_yaw_energy_retaining|target=45p0|dir=-1|start=favourable|latency=nominal|radius=r[1.25,1.50)|speed=v[6.00,6.50)|wing_mean=ww_nan|margin=m[-0.25,0.00)",four_fan_branch,four_fan,W0_four_fan_branch,bank_yaw_energy_retaining,45.0,-1,favourable,nominal,"r[1.25,1.50)","v[6.00,6.50)",ww_nan,"m[-0.25,0.00)",1,1,0,0.0,0,0,true_safety_violation,none,42.456773733299855,42.456773733299855,-0.19732554885974807,0.0,-0.08700439914943292,0.0,all_failure,branch_local_only_no_cross_layout_decision_transfer
"cell|branch=four_fan_branch|fan=four_fan|env=W0_four_fan_branch|family=bank_yaw_energy_retaining|target=45p0|dir=-1|start=favourable|latency=nominal|radius=r[2.50,2.75)|speed=v[6.00,6.50)|wing_mean=ww_nan|margin=m[-0.25,0.00)",four_fan_branch,four_fan,W0_four_fan_branch,bank_yaw_energy_retaining,45.0,-1,favourable,nominal,"r[2.50,2.75)","v[6.00,6.50)",ww_nan,"m[-0.25,0.00)",1,1,0,0.0,0,0,true_safety_violation,none,39.71025004657581,39.71025004657581,-0.2785278014050552,0.0,-0.0606302791227149,0.0,all_failure,branch_local_only_no_cross_layout_decision_transfer
"cell|branch=four_fan_branch|fan=four_fan|env=W0_four_fan_branch|family=bank_yaw_energy_retaining|target=45p0|dir=-1|start=favourable|latency=nominal|radius=r[2.75,3.00)|speed=v[6.50,7.00)|wing_mean=ww_nan|margin=m[-0.25,0.00)",four_fan_branch,four_fan,W0_four_fan_branch,bank_yaw_energy_retaining,45.0,-1,favourable,nominal,"r[2.75,3.00)","v[6.50,7.00)",ww_nan,"m[-0.25,0.00)",1,1,0,0.0,0,0,true_safety_violation,none,36.41062537333229,36.41062537333229,-0.3389886143161247,0.0,-0.05415204493758541,0.0,all_failure,branch_local_only_no_cross_layout_decision_transfer
"cell|branch=four_fan_branch|fan=four_fan|env=W0_four_fan_branch|family=bank_yaw_energy_retaining|target=45p0|dir=-1|start=lift_sector|latency=nominal|radius=r[0.25,0.50)|speed=v[6.00,6.50)|wing_mean=ww_nan|margin=m[-0.25,0.00)",four_fan_branch,four_fan,W0_four_fan_branch,bank_yaw_energy_retaining,45.0,-1,lift_sector,nominal,"r[0.25,0.50)","v[6.00,6.50)",ww_nan,"m[-0.25,0.00)",1,1,0,0.0,0,0,true_safety_violation,none,41.15923457521694,41.15923457521694,-0.2217356946736917,0.0,-0.002216826638892659,0.0,all_failure,branch_local_only_no_cross_layout_decision_transfer
"cell|branch=four_fan_branch|fan=four_fan|env=W0_four_fan_branch|family=bank_yaw_energy_retaining|target=45p0|dir=-1|start=lift_sector|latency=nominal|radius=r[0.50,0.75)|speed=v[5.50,6.00)|wing_mean=ww_nan|margin=m[-0.25,0.00)",four_fan_branch,four_fan,W0_four_fan_branch,bank_yaw_energy_retaining,45.0,-1,lift_sector,nominal,"r[0.50,0.75)","v[5.50,6.00)",ww_nan,"m[-0.25,0.00)",1,1,0,0.0,0,0,true_safety_violation,none,44.8844630305656,44.8844630305656,-0.03866675540758813,0.0,-0.018545378881716493,0.0,all_failure,branch_local_only_no_cross_layout_decision_transfer
"cell|branch=four_fan_branch|fan=four_fan|env=W0_four_fan_branch|family=bank_yaw_energy_retaining|target=45p0|dir=-1|start=lift_sector|latency=nominal|radius=r[0.75,1.00)|speed=v[5.00,5.50)|wing_mean=ww_nan|margin=m[0.00,0.25)",four_fan_branch,four_fan,W0_four_fan_branch,bank_yaw_energy_retaining,45.0,-1,lift_sector,nominal,"r[0.75,1.00)","v[5.00,5.50)",ww_nan,"m[0.00,0.25)",1,1,0,0.0,0,0,target_miss,none,40.92239609070981,40.92239609070981,-0.28061591879530523,0.0,0.2398083524905985,0.0,all_failure,branch_local_only_no_cross_layout_decision_transfer
"cell|branch=four_fan_branch|fan=four_fan|env=W0_four_fan_branch|family=bank_yaw_energy_retaining|target=45p0|dir=-1|start=mid_arena|latency=nominal|radius=r[1.75,2.00)|speed=v[6.00,6.50)|wing_mean=ww_nan|margin=m[-0.25,0.00)",four_fan_branch,four_fan,W0_four_fan_branch,bank_yaw_energy_retaining,45.0,-1,mid_arena,nominal,"r[1.75,2.00)","v[6.00,6.50)",ww_nan,"m[-0.25,0.00)",1,1,0,0.0,0,0,true_safety_violation,none,42.08084156623752,42.08084156623752,-0.22430451614331215,0.0,-0.05422602959010625,0.0,all_failure,branch_local_only_no_cross_layout_decision_transfer
"cell|branch=four_fan_branch|fan=four_fan|env=W0_four_fan_branch|family=bank_yaw_energy_retaining|target=45p0|dir=-1|start=mid_arena|latency=nominal|radius=r[2.00,2.25)|speed=v[7.00,7.50)|wing_mean=ww_nan|margin=m[-0.25,0.00)",four_fan_branch,four_fan,W0_four_fan_branch,bank_yaw_energy_retaining,45.0,-1,mid_arena,nominal,"r[2.00,2.25)","v[7.00,7.50)",ww_nan,"m[-0.25,0.00)",1,1,0,0.0,0,0,true_safety_violation,none,34.065556043677624,34.065556043677624,-0.3526537367778113,0.0,-0.11019324203130143,0.0,all_failure,branch_local_only_no_cross_layout_decision_transfer
"cell|branch=four_fan_branch|fan=four_fan|env=W0_four_fan_branch|family=bank_yaw_energy_retaining|target=45p0|dir=-1|start=random_stress|latency=nominal|radius=r[2.75,3.00)|speed=v[5.50,6.00)|wing_mean=ww_nan|margin=m[0.00,0.25)",four_fan_branch,four_fan,W0_four_fan_branch,bank_yaw_energy_retaining,45.0,-1,random_stress,nominal,"r[2.75,3.00)","v[5.50,6.00)",ww_nan,"m[0.00,0.25)",1,1,0,0.0,0,0,target_miss,none,25.90346187362985,25.90346187362985,-0.32701658866503625,0.0,0.21964729709053776,0.0,all_failure,branch_local_only_no_cross_layout_decision_transfer
"cell|branch=four_fan_branch|fan=four_fan|env=W0_four_fan_branch|family=bank_yaw_energy_retaining|target=45p0|dir=-1|start=random_stress|latency=nominal|radius=r[3.25,3.50)|speed=v[6.50,7.00)|wing_mean=ww_nan|margin=m[-0.25,0.00)",four_fan_branch,four_fan,W0_four_fan_branch,bank_yaw_energy_retaining,45.0,-1,random_stress,nominal,"r[3.25,3.50)","v[6.50,7.00)",ww_nan,"m[-0.25,0.00)",1,1,0,0.0,0,0,true_safety_violation,none,43.270734684664234,43.270734684664234,-0.030387060786367215,0.0,-0.010803312972799392,0.0,all_failure,branch_local_only_no_cross_layout_decision_transfer
"cell|branch=four_fan_branch|fan=four_fan|env=W0_four_fan_branch|family=bank_yaw_energy_retaining|target=45p0|dir=1|start=favourable|latency=nominal|radius=r[2.00,2.25)|speed=v[6.00,6.50)|wing_mean=ww_nan|margin=m[-0.25,0.00)",four_fan_branch,four_fan,W0_four_fan_branch,bank_yaw_energy_retaining,45.0,1,favourable,nominal,"r[2.00,2.25)","v[6.00,6.50)",ww_nan,"m[-0.25,0.00)",1,1,0,0.0,0,0,true_safety_violation,none,40.49743578532059,40.49743578532059,-0.24569560688211833,0.0,-0.08307984444147021,0.0,all_failure,branch_local_only_no_cross_layout_decision_transfer
"cell|branch=four_fan_branch|fan=four_fan|env=W0_four_fan_branch|family=bank_yaw_energy_retaining|target=45p0|dir=1|start=favourable|latency=nominal|radius=r[2.00,2.25)|speed=v[6.50,7.00)|wing_mean=ww_nan|margin=m[-0.25,0.00)",four_fan_branch,four_fan,W0_four_fan_branch,bank_yaw_energy_retaining,45.0,1,favourable,nominal,"r[2.00,2.25)","v[6.50,7.00)",ww_nan,"m[-0.25,0.00)",1,1,0,0.0,0,0,true_safety_violation,none,42.57294952534846,42.57294952534846,-0.2321875996592464,0.0,-0.028132984110984083,0.0,all_failure,branch_local_only_no_cross_layout_decision_transfer
"cell|branch=four_fan_branch|fan=four_fan|env=W0_four_fan_branch|family=bank_yaw_energy_retaining|target=45p0|dir=1|start=favourable|latency=nominal|radius=r[2.75,3.00)|speed=v[6.50,7.00)|wing_mean=ww_nan|margin=m[-0.25,0.00)",four_fan_branch,four_fan,W0_four_fan_branch,bank_yaw_energy_retaining,45.0,1,favourable,nominal,"r[2.75,3.00)","v[6.50,7.00)",ww_nan,"m[-0.25,0.00)",1,1,0,0.0,0,0,true_safety_violation,none,37.84769399714002,37.84769399714002,-0.343363328393095,0.0,-0.05508709936854217,0.0,all_failure,branch_local_only_no_cross_layout_decision_transfer
"cell|branch=four_fan_branch|fan=four_fan|env=W0_four_fan_branch|family=bank_yaw_energy_retaining|target=45p0|dir=1|start=lift_sector|latency=nominal|radius=r[0.00,0.25)|speed=v[6.50,7.00)|wing_mean=ww_nan|margin=m[-0.25,0.00)",four_fan_branch,four_fan,W0_four_fan_branch,bank_yaw_energy_retaining,45.0,1,lift_sector,nominal,"r[0.00,0.25)","v[6.50,7.00)",ww_nan,"m[-0.25,0.00)",1,1,0,0.0,0,0,true_safety_violation,none,37.37644494563451,37.37644494563451,-0.3267665429980591,0.0,-0.009324395475979408,0.0,all_failure,branch_local_only_no_cross_layout_decision_transfer
"cell|branch=four_fan_branch|fan=four_fan|env=W0_four_fan_branch|family=bank_yaw_energy_retaining|target=45p0|dir=1|start=lift_sector|latency=nominal|radius=r[0.50,0.75)|speed=v[5.00,5.50)|wing_mean=ww_nan|margin=m[-0.25,0.00)",four_fan_branch,four_fan,W0_four_fan_branch,bank_yaw_energy_retaining,45.0,1,lift_sector,nominal,"r[0.50,0.75)","v[5.00,5.50)",ww_nan,"m[-0.25,0.00)",1,1,0,0.0,0,0,true_safety_violation,none,46.1788791988715,46.1788791988715,-0.04710537489446098,0.0,-0.09573535922289089,0.0,all_failure,branch_local_only_no_cross_layout_decision_transfer
"cell|branch=four_fan_branch|fan=four_fan|env=W0_four_fan_branch|family=bank_yaw_energy_retaining|target=45p0|dir=1|start=lift_sector|latency=nominal|radius=r[1.00,1.25)|speed=v[6.50,7.00)|wing_mean=ww_nan|margin=m[-0.25,0.00)",four_fan_branch,four_fan,W0_four_fan_branch,bank_yaw_energy_retaining,45.0,1,lift_sector,nominal,"r[1.00,1.25)","v[6.50,7.00)",ww_nan,"m[-0.25,0.00)",1,1,0,0.0,0,0,true_safety_violation,none,45.00937390227801,45.00937390227801,-0.021237291222292676,0.0,-0.10606993013740684,0.0,all_failure,branch_local_only_no_cross_layout_decision_transfer
"cell|branch=four_fan_branch|fan=four_fan|env=W0_four_fan_branch|family=bank_yaw_energy_retaining|target=45p0|dir=1|start=mid_arena|latency=nominal|radius=r[1.75,2.00)|speed=v[6.50,7.00)|wing_mean=ww_nan|margin=m[-0.25,0.00)",four_fan_branch,four_fan,W0_four_fan_branch,bank_yaw_energy_retaining,45.0,1,mid_arena,nominal,"r[1.75,2.00)","v[6.50,7.00)",ww_nan,"m[-0.25,0.00)",2,2,0,0.0,0,0,true_safety_violation,none,44.215136762820194,44.215136762820194,-0.19918904103681667,0.0,-0.0660041456677174,0.0,all_failure,branch_local_only_no_cross_layout_decision_transfer
"cell|branch=four_fan_branch|fan=four_fan|env=W0_four_fan_branch|family=bank_yaw_energy_retaining|target=45p0|dir=1|start=random_stress|latency=nominal|radius=r[3.75,4.00)|speed=v[6.50,7.00)|wing_mean=ww_nan|margin=m[0.25,0.50)",four_fan_branch,four_fan,W0_four_fan_branch,bank_yaw_energy_retaining,45.0,1,random_stress,nominal,"r[3.75,4.00)","v[6.50,7.00)",ww_nan,"m[0.25,0.50)",1,1,0,0.0,0,0,target_miss,none,34.319688932803814,34.319688932803814,-0.32767744804452903,0.0,0.25533627838977146,0.0,all_failure,branch_local_only_no_cross_layout_decision_transfer
"cell|branch=four_fan_branch|fan=four_fan|env=W0_four_fan_branch|family=bank_yaw_energy_retaining|target=45p0|dir=1|start=random_stress|latency=nominal|radius=r[4.00,4.25)|speed=v[5.00,5.50)|wing_mean=ww_nan|margin=m[-0.25,0.00)",four_fan_branch,four_fan,W0_four_fan_branch,bank_yaw_energy_retaining,45.0,1,random_stress,nominal,"r[4.00,4.25)","v[5.00,5.50)",ww_nan,"m[-0.25,0.00)",1,1,0,0.0,0,0,true_safety_violation,none,45.8008090405136,45.8008090405136,-0.05759205598011974,0.0,-0.06822380013605933,0.0,all_failure,branch_local_only_no_cross_layout_decision_transfer
"cell|branch=four_fan_branch|fan=four_fan|env=W0_four_fan_branch|family=bank_yaw_energy_retaining|target=60p0|dir=-1|start=favourable|latency=nominal|radius=r[0.50,0.75)|speed=v[6.00,6.50)|wing_mean=ww_nan|margin=m[0.25,0.50)",four_fan_branch,four_fan,W0_four_fan_branch,bank_yaw_energy_retaining,60.0,-1,favourable,nominal,"r[0.50,0.75)","v[6.00,6.50)",ww_nan,"m[0.25,0.50)",1,1,0,0.0,0,0,target_miss,none,51.32722618060254,51.32722618060254,-0.3103683974428266,0.0,0.4714229026754664,0.0,all_failure,branch_local_only_no_cross_layout_decision_transfer
"cell|branch=four_fan_branch|fan=four_fan|env=W0_four_fan_branch|family=bank_yaw_energy_retaining|target=60p0|dir=-1|start=favourable|latency=nominal|radius=r[0.75,1.00)|speed=v[6.50,7.00)|wing_mean=ww_nan|margin=m[-0.25,0.00)",four_fan_branch,four_fan,W0_four_fan_branch,bank_yaw_energy_retaining,60.0,-1,favourable,nominal,"r[0.75,1.00)","v[6.50,7.00)",ww_nan,"m[-0.25,0.00)",1,1,0,0.0,0,0,true_safety_violation,none,51.08106779607326,51.08106779607326,-0.38939628098760615,0.0,-0.04469151011401795,0.0,all_failure,branch_local_only_no_cross_layout_decision_transfer
"cell|branch=four_fan_branch|fan=four_fan|env=W0_four_fan_branch|family=bank_yaw_energy_retaining|target=60p0|dir=-1|start=favourable|latency=nominal|radius=r[2.00,2.25)|speed=v[6.50,7.00)|wing_mean=ww_nan|margin=m[0.25,0.50)",four_fan_branch,four_fan,W0_four_fan_branch,bank_yaw_energy_retaining,60.0,-1,favourable,nominal,"r[2.00,2.25)","v[6.50,7.00)",ww_nan,"m[0.25,0.50)",1,1,0,0.0,0,0,target_miss,none,51.28314473220824,51.28314473220824,-0.3627603367542118,0.0,0.41792830126292735,0.0,all_failure,branch_local_only_no_cross_layout_decision_transfer
"cell|branch=four_fan_branch|fan=four_fan|env=W0_four_fan_branch|family=bank_yaw_energy_retaining|target=60p0|dir=-1|start=lift_sector|latency=nominal|radius=r[0.25,0.50)|speed=v[6.50,7.00)|wing_mean=ww_nan|margin=m[-0.25,0.00)",four_fan_branch,four_fan,W0_four_fan_branch,bank_yaw_energy_retaining,60.0,-1,lift_sector,nominal,"r[0.25,0.50)","v[6.50,7.00)",ww_nan,"m[-0.25,0.00)",1,1,0,0.0,0,0,true_safety_violation,none,61.43794055497695,61.43794055497695,-0.11737702835584862,0.0,-0.0761222504240153,0.0,all_failure,branch_local_only_no_cross_layout_decision_transfer
"cell|branch=four_fan_branch|fan=four_fan|env=W0_four_fan_branch|family=bank_yaw_energy_retaining|target=60p0|dir=-1|start=lift_sector|latency=nominal|radius=r[0.75,1.00)|speed=v[6.50,7.00)|wing_mean=ww_nan|margin=m[-0.25,0.00)",four_fan_branch,four_fan,W0_four_fan_branch,bank_yaw_energy_retaining,60.0,-1,lift_sector,nominal,"r[0.75,1.00)","v[6.50,7.00)",ww_nan,"m[-0.25,0.00)",1,1,0,0.0,0,0,true_safety_violation,none,55.733279152847814,55.733279152847814,-0.29593324737489946,0.0,-0.032809558961373275,0.0,all_failure,branch_local_only_no_cross_layout_decision_transfer
"cell|branch=four_fan_branch|fan=four_fan|env=W0_four_fan_branch|family=bank_yaw_energy_retaining|target=60p0|dir=-1|start=lift_sector|latency=nominal|radius=r[1.00,1.25)|speed=v[5.00,5.50)|wing_mean=ww_nan|margin=m[-0.25,0.00)",four_fan_branch,four_fan,W0_four_fan_branch,bank_yaw_energy_retaining,60.0,-1,lift_sector,nominal,"r[1.00,1.25)","v[5.00,5.50)",ww_nan,"m[-0.25,0.00)",1,1,0,0.0,0,0,true_safety_violation,none,58.94576806751665,58.94576806751665,-0.17318422631995212,0.0,-0.08482559149716273,0.0,all_failure,branch_local_only_no_cross_layout_decision_transfer
"cell|branch=four_fan_branch|fan=four_fan|env=W0_four_fan_branch|family=bank_yaw_energy_retaining|target=60p0|dir=-1|start=mid_arena|latency=nominal|radius=r[1.25,1.50)|speed=v[5.50,6.00)|wing_mean=ww_nan|margin=m[-0.25,0.00)",four_fan_branch,four_fan,W0_four_fan_branch,bank_yaw_energy_retaining,60.0,-1,mid_arena,nominal,"r[1.25,1.50)","v[5.50,6.00)",ww_nan,"m[-0.25,0.00)",1,1,0,0.0,0,0,true_safety_violation,none,57.3194445558475,57.3194445558475,-0.19780510327630862,0.0,-0.052132127419936225,0.0,all_failure,branch_local_only_no_cross_layout_decision_transfer
"cell|branch=four_fan_branch|fan=four_fan|env=W0_four_fan_branch|family=bank_yaw_energy_retaining|target=60p0|dir=-1|start=mid_arena|latency=nominal|radius=r[2.00,2.25)|speed=v[5.50,6.00)|wing_mean=ww_nan|margin=m[-0.25,0.00)",four_fan_branch,four_fan,W0_four_fan_branch,bank_yaw_energy_retaining,60.0,-1,mid_arena,nominal,"r[2.00,2.25)","v[5.50,6.00)",ww_nan,"m[-0.25,0.00)",1,1,0,0.0,0,0,true_safety_violation,none,58.9619469923462,58.9619469923462,-0.1380147581175737,0.0,-0.02378931416870156,0.0,all_failure,branch_local_only_no_cross_layout_decision_transfer
"cell|branch=four_fan_branch|fan=four_fan|env=W0_four_fan_branch|family=bank_yaw_energy_retaining|target=60p0|dir=-1|start=random_stress|latency=nominal|radius=r[0.75,1.00)|speed=v[6.50,7.00)|wing_mean=ww_nan|margin=m[-0.25,0.00)",four_fan_branch,four_fan,W0_four_fan_branch,bank_yaw_energy_retaining,60.0,-1,random_stress,nominal,"r[0.75,1.00)","v[6.50,7.00)",ww_nan,"m[-0.25,0.00)",1,1,0,0.0,0,0,true_safety_violation,none,61.29997470917017,61.29997470917017,-0.03568515679360118,0.0,-0.11327278213609632,0.0,all_failure,branch_local_only_no_cross_layout_decision_transfer
"cell|branch=four_fan_branch|fan=four_fan|env=W0_four_fan_branch|family=bank_yaw_energy_retaining|target=60p0|dir=-1|start=random_stress|latency=nominal|radius=r[3.75,4.00)|speed=v[5.50,6.00)|wing_mean=ww_nan|margin=m[0.00,0.25)",four_fan_branch,four_fan,W0_four_fan_branch,bank_yaw_energy_retaining,60.0,-1,random_stress,nominal,"r[3.75,4.00)","v[5.50,6.00)",ww_nan,"m[0.00,0.25)",1,1,0,0.0,0,0,target_miss,none,54.3008262137554,54.3008262137554,-0.2543351689658464,0.0,0.20384561927840927,0.0,all_failure,branch_local_only_no_cross_layout_decision_transfer
"cell|branch=four_fan_branch|fan=four_fan|env=W0_four_fan_branch|family=bank_yaw_energy_retaining|target=60p0|dir=1|start=favourable|latency=nominal|radius=r[2.00,2.25)|speed=v[6.00,6.50)|wing_mean=ww_nan|margin=m[-0.25,0.00)",four_fan_branch,four_fan,W0_four_fan_branch,bank_yaw_energy_retaining,60.0,1,favourable,nominal,"r[2.00,2.25)","v[6.00,6.50)",ww_nan,"m[-0.25,0.00)",1,1,0,0.0,0,0,true_safety_violation,none,54.18704319385205,54.18704319385205,-0.32929566865342963,0.0,-0.015748857779450454,0.0,all_failure,branch_local_only_no_cross_layout_decision_transfer
"cell|branch=four_fan_branch|fan=four_fan|env=W0_four_fan_branch|family=bank_yaw_energy_retaining|target=60p0|dir=1|start=favourable|latency=nominal|radius=r[2.25,2.50)|speed=v[6.00,6.50)|wing_mean=ww_nan|margin=m[-0.25,0.00)",four_fan_branch,four_fan,W0_four_fan_branch,bank_yaw_energy_retaining,60.0,1,favourable,nominal,"r[2.25,2.50)","v[6.00,6.50)",ww_nan,"m[-0.25,0.00)",1,1,0,0.0,0,0,true_safety_violation,none,55.09687463249227,55.09687463249227,-0.29051745028545284,0.0,-0.11947693804889603,0.0,all_failure,branch_local_only_no_cross_layout_decision_transfer
"cell|branch=four_fan_branch|fan=four_fan|env=W0_four_fan_branch|family=bank_yaw_energy_retaining|target=60p0|dir=1|start=favourable|latency=nominal|radius=r[3.50,3.75)|speed=v[6.50,7.00)|wing_mean=ww_nan|margin=m[0.50,0.75)",four_fan_branch,four_fan,W0_four_fan_branch,bank_yaw_energy_retaining,60.0,1,favourable,nominal,"r[3.50,3.75)","v[6.50,7.00)",ww_nan,"m[0.50,0.75)",1,1,0,0.0,0,0,target_miss,none,49.39815782246926,49.39815782246926,-0.3538074291725457,0.0,0.6143979809461895,0.0,all_failure,branch_local_only_no_cross_layout_decision_transfer
"cell|branch=four_fan_branch|fan=four_fan|env=W0_four_fan_branch|family=bank_yaw_energy_retaining|target=60p0|dir=1|start=lift_sector|latency=nominal|radius=r[0.00,0.25)|speed=v[5.00,5.50)|wing_mean=ww_nan|margin=m[0.25,0.50)",four_fan_branch,four_fan,W0_four_fan_branch,bank_yaw_energy_retaining,60.0,1,lift_sector,nominal,"r[0.00,0.25)","v[5.00,5.50)",ww_nan,"m[0.25,0.50)",1,1,0,0.0,0,0,target_miss,none,52.691290756917255,52.691290756917255,-0.24942666891122744,0.0,0.3795426460319593,0.0,all_failure,branch_local_only_no_cross_layout_decision_transfer
"cell|branch=four_fan_branch|fan=four_fan|env=W0_four_fan_branch|family=bank_yaw_energy_retaining|target=60p0|dir=1|start=lift_sector|latency=nominal|radius=r[0.75,1.00)|speed=v[6.00,6.50)|wing_mean=ww_nan|margin=m[-0.25,0.00)",four_fan_branch,four_fan,W0_four_fan_branch,bank_yaw_energy_retaining,60.0,1,lift_sector,nominal,"r[0.75,1.00)","v[6.00,6.50)",ww_nan,"m[-0.25,0.00)",1,1,0,0.0,0,0,true_safety_violation,none,50.33804119173229,50.33804119173229,-0.2729081587775277,0.0,-0.028587654970468,0.0,all_failure,branch_local_only_no_cross_layout_decision_transfer
"cell|branch=four_fan_branch|fan=four_fan|env=W0_four_fan_branch|family=bank_yaw_energy_retaining|target=60p0|dir=1|start=lift_sector|latency=nominal|radius=r[1.00,1.25)|speed=v[6.50,7.00)|wing_mean=ww_nan|margin=m[-0.25,0.00)",four_fan_branch,four_fan,W0_four_fan_branch,bank_yaw_energy_retaining,60.0,1,lift_sector,nominal,"r[1.00,1.25)","v[6.50,7.00)",ww_nan,"m[-0.25,0.00)",1,1,0,0.0,0,0,true_safety_violation,none,59.50675639579265,59.50675639579265,-0.06816820661209322,0.0,-0.11470291401095833,0.0,all_failure,branch_local_only_no_cross_layout_decision_transfer
"cell|branch=four_fan_branch|fan=four_fan|env=W0_four_fan_branch|family=bank_yaw_energy_retaining|target=60p0|dir=1|start=mid_arena|latency=nominal|radius=r[1.50,1.75)|speed=v[5.50,6.00)|wing_mean=ww_nan|margin=m[-0.25,0.00)",four_fan_branch,four_fan,W0_four_fan_branch,bank_yaw_energy_retaining,60.0,1,mid_arena,nominal,"r[1.50,1.75)","v[5.50,6.00)",ww_nan,"m[-0.25,0.00)",1,1,0,0.0,0,0,true_safety_violation,none,50.74037298501026,50.74037298501026,-0.26648070853037975,0.0,-0.0633838462718117,0.0,all_failure,branch_local_only_no_cross_layout_decision_transfer
"cell|branch=four_fan_branch|fan=four_fan|env=W0_four_fan_branch|family=bank_yaw_energy_retaining|target=60p0|dir=1|start=mid_arena|latency=nominal|radius=r[2.75,3.00)|speed=v[5.50,6.00)|wing_mean=ww_nan|margin=m[0.00,0.25)",four_fan_branch,four_fan,W0_four_fan_branch,bank_yaw_energy_retaining,60.0,1,mid_arena,nominal,"r[2.75,3.00)","v[5.50,6.00)",ww_nan,"m[0.00,0.25)",1,1,0,0.0,0,0,target_miss,none,50.622069094187296,50.622069094187296,-0.27454976583477464,0.0,0.07990788757653622,0.0,all_failure,branch_local_only_no_cross_layout_decision_transfer
"cell|branch=four_fan_branch|fan=four_fan|env=W0_four_fan_branch|family=bank_yaw_energy_retaining|target=60p0|dir=1|start=random_stress|latency=nominal|radius=r[1.50,1.75)|speed=v[5.50,6.00)|wing_mean=ww_nan|margin=m[-0.25,0.00)",four_fan_branch,four_fan,W0_four_fan_branch,bank_yaw_energy_retaining,60.0,1,random_stress,nominal,"r[1.50,1.75)","v[5.50,6.00)",ww_nan,"m[-0.25,0.00)",1,1,0,0.0,0,0,true_safety_violation,none,58.99538300160309,58.99538300160309,-0.019467561599444405,0.0,-0.10406184044393108,0.0,all_failure,branch_local_only_no_cross_layout_decision_transfer
"cell|branch=four_fan_branch|fan=four_fan|env=W0_four_fan_branch|family=bank_yaw_energy_retaining|target=60p0|dir=1|start=random_stress|latency=nominal|radius=r[3.25,3.50)|speed=v[6.50,7.00)|wing_mean=ww_nan|margin=m[-0.25,0.00)",four_fan_branch,four_fan,W0_four_fan_branch,bank_yaw_energy_retaining,60.0,1,random_stress,nominal,"r[3.25,3.50)","v[6.50,7.00)",ww_nan,"m[-0.25,0.00)",1,1,0,0.0,0,0,true_safety_violation,none,60.2808482555884,60.2808482555884,-0.018005672210805734,0.0,-0.02940452446181041,0.0,all_failure,branch_local_only_no_cross_layout_decision_transfer
"cell|branch=four_fan_branch|fan=four_fan|env=W0_four_fan_branch|family=bank_yaw_energy_retaining|target=90p0|dir=-1|start=favourable|latency=nominal|radius=r[1.00,1.25)|speed=v[6.50,7.00)|wing_mean=ww_nan|margin=m[0.00,0.25)",four_fan_branch,four_fan,W0_four_fan_branch,bank_yaw_energy_retaining,90.0,-1,favourable,nominal,"r[1.00,1.25)","v[6.50,7.00)",ww_nan,"m[0.00,0.25)",1,1,0,0.0,0,0,target_miss,none,79.04018435200992,79.04018435200992,-0.3872886528336852,0.0,0.1458368064464708,0.0,all_failure,branch_local_only_no_cross_layout_decision_transfer
"cell|branch=four_fan_branch|fan=four_fan|env=W0_four_fan_branch|family=bank_yaw_energy_retaining|target=90p0|dir=-1|start=favourable|latency=nominal|radius=r[1.50,1.75)|speed=v[6.00,6.50)|wing_mean=ww_nan|margin=m[-0.25,0.00)",four_fan_branch,four_fan,W0_four_fan_branch,bank_yaw_energy_retaining,90.0,-1,favourable,nominal,"r[1.50,1.75)","v[6.00,6.50)",ww_nan,"m[-0.25,0.00)",1,1,0,0.0,0,0,true_safety_violation,none,87.3127880686081,87.3127880686081,-0.18321910707266875,0.0,-0.02711689669485562,0.0,all_failure,branch_local_only_no_cross_layout_decision_transfer
"cell|branch=four_fan_branch|fan=four_fan|env=W0_four_fan_branch|family=bank_yaw_energy_retaining|target=90p0|dir=-1|start=favourable|latency=nominal|radius=r[2.50,2.75)|speed=v[6.00,6.50)|wing_mean=ww_nan|margin=m[0.00,0.25)",four_fan_branch,four_fan,W0_four_fan_branch,bank_yaw_energy_retaining,90.0,-1,favourable,nominal,"r[2.50,2.75)","v[6.00,6.50)",ww_nan,"m[0.00,0.25)",1,1,0,0.0,0,0,target_miss,none,81.93375781683379,81.93375781683379,-0.3411265468471574,0.0,0.07707440051621806,0.0,all_failure,branch_local_only_no_cross_layout_decision_transfer
"cell|branch=four_fan_branch|fan=four_fan|env=W0_four_fan_branch|family=bank_yaw_energy_retaining|target=90p0|dir=-1|start=lift_sector|latency=nominal|radius=r[0.25,0.50)|speed=v[6.00,6.50)|wing_mean=ww_nan|margin=m[-0.25,0.00)",four_fan_branch,four_fan,W0_four_fan_branch,bank_yaw_energy_retaining,90.0,-1,lift_sector,nominal,"r[0.25,0.50)","v[6.00,6.50)",ww_nan,"m[-0.25,0.00)",1,1,0,0.0,0,0,true_safety_violation,none,86.06492000017751,86.06492000017751,-0.2834230846843635,0.0,-0.016526861423670013,0.0,all_failure,branch_local_only_no_cross_layout_decision_transfer
"cell|branch=four_fan_branch|fan=four_fan|env=W0_four_fan_branch|family=bank_yaw_energy_retaining|target=90p0|dir=-1|start=lift_sector|latency=nominal|radius=r[0.75,1.00)|speed=v[6.50,7.00)|wing_mean=ww_nan|margin=m[-0.25,0.00)",four_fan_branch,four_fan,W0_four_fan_branch,bank_yaw_energy_retaining,90.0,-1,lift_sector,nominal,"r[0.75,1.00)","v[6.50,7.00)",ww_nan,"m[-0.25,0.00)",1,1,0,0.0,0,0,true_safety_violation,none,87.89224874669867,87.89224874669867,-0.25832585314354173,0.0,-0.023555921950484837,0.0,all_failure,branch_local_only_no_cross_layout_decision_transfer
"cell|branch=four_fan_branch|fan=four_fan|env=W0_four_fan_branch|family=bank_yaw_energy_retaining|target=90p0|dir=-1|start=lift_sector|latency=nominal|radius=r[1.00,1.25)|speed=v[6.00,6.50)|wing_mean=ww_nan|margin=m[-0.25,0.00)",four_fan_branch,four_fan,W0_four_fan_branch,bank_yaw_energy_retaining,90.0,-1,lift_sector,nominal,"r[1.00,1.25)","v[6.00,6.50)",ww_nan,"m[-0.25,0.00)",1,1,0,0.0,0,0,true_safety_violation,none,79.45195740324132,79.45195740324132,-0.2354119619409465,0.0,-0.0409598728381253,0.0,all_failure,branch_local_only_no_cross_layout_decision_transfer
"cell|branch=four_fan_branch|fan=four_fan|env=W0_four_fan_branch|family=bank_yaw_energy_retaining|target=90p0|dir=-1|start=mid_arena|latency=nominal|radius=r[1.75,2.00)|speed=v[6.00,6.50)|wing_mean=ww_nan|margin=m[-0.25,0.00)",four_fan_branch,four_fan,W0_four_fan_branch,bank_yaw_energy_retaining,90.0,-1,mid_arena,nominal,"r[1.75,2.00)","v[6.00,6.50)",ww_nan,"m[-0.25,0.00)",1,1,0,0.0,0,0,true_safety_violation,none,80.02229778112712,80.02229778112712,-0.25622365682738657,0.0,-0.09604140913429886,0.0,all_failure,branch_local_only_no_cross_layout_decision_transfer
"cell|branch=four_fan_branch|fan=four_fan|env=W0_four_fan_branch|family=bank_yaw_energy_retaining|target=90p0|dir=-1|start=mid_arena|latency=nominal|radius=r[2.50,2.75)|speed=v[6.50,7.00)|wing_mean=ww_nan|margin=m[-0.25,0.00)",four_fan_branch,four_fan,W0_four_fan_branch,bank_yaw_energy_retaining,90.0,-1,mid_arena,nominal,"r[2.50,2.75)","v[6.50,7.00)",ww_nan,"m[-0.25,0.00)",1,1,0,0.0,0,0,true_safety_violation,none,89.71360694364306,89.71360694364306,-0.14593629569768973,0.0,-0.007100391678569906,0.0,all_failure,branch_local_only_no_cross_layout_decision_transfer
"cell|branch=four_fan_branch|fan=four_fan|env=W0_four_fan_branch|family=bank_yaw_energy_retaining|target=90p0|dir=-1|start=random_stress|latency=nominal|radius=r[3.00,3.25)|speed=v[6.50,7.00)|wing_mean=ww_nan|margin=m[-0.25,0.00)",four_fan_branch,four_fan,W0_four_fan_branch,bank_yaw_energy_retaining,90.0,-1,random_stress,nominal,"r[3.00,3.25)","v[6.50,7.00)",ww_nan,"m[-0.25,0.00)",1,1,0,0.0,0,0,true_safety_violation,none,92.12936387956836,92.12936387956836,-0.039847426899561,0.0,-0.12007825087002555,0.0,all_failure,branch_local_only_no_cross_layout_decision_transfer
"cell|branch=four_fan_branch|fan=four_fan|env=W0_four_fan_branch|family=bank_yaw_energy_retaining|target=90p0|dir=-1|start=random_stress|latency=nominal|radius=r[4.25,4.50)|speed=v[5.50,6.00)|wing_mean=ww_nan|margin=m[-0.25,0.00)",four_fan_branch,four_fan,W0_four_fan_branch,bank_yaw_energy_retaining,90.0,-1,random_stress,nominal,"r[4.25,4.50)","v[5.50,6.00)",ww_nan,"m[-0.25,0.00)",1,1,0,0.0,0,0,true_safety_violation,none,92.24647757245455,92.24647757245455,-0.11983642334207101,0.0,-0.05781021000582198,0.0,all_failure,branch_local_only_no_cross_layout_decision_transfer
"cell|branch=four_fan_branch|fan=four_fan|env=W0_four_fan_branch|family=bank_yaw_energy_retaining|target=90p0|dir=1|start=favourable|latency=nominal|radius=r[1.00,1.25)|speed=v[6.00,6.50)|wing_mean=ww_nan|margin=m[-0.25,0.00)",four_fan_branch,four_fan,W0_four_fan_branch,bank_yaw_energy_retaining,90.0,1,favourable,nominal,"r[1.00,1.25)","v[6.00,6.50)",ww_nan,"m[-0.25,0.00)",1,1,0,0.0,0,0,true_safety_violation,none,85.22382934739092,85.22382934739092,-0.2661525380100729,0.0,-0.10993631202889809,0.0,all_failure,branch_local_only_no_cross_layout_decision_transfer
"cell|branch=four_fan_branch|fan=four_fan|env=W0_four_fan_branch|family=bank_yaw_energy_retaining|target=90p0|dir=1|start=favourable|latency=nominal|radius=r[1.50,1.75)|speed=v[6.50,7.00)|wing_mean=ww_nan|margin=m[-0.25,0.00)",four_fan_branch,four_fan,W0_four_fan_branch,bank_yaw_energy_retaining,90.0,1,favourable,nominal,"r[1.50,1.75)","v[6.50,7.00)",ww_nan,"m[-0.25,0.00)",1,1,0,0.0,0,0,true_safety_violation,none,83.12514614893641,83.12514614893641,-0.37534559813052937,0.0,-0.06994367117109146,0.0,all_failure,branch_local_only_no_cross_layout_decision_transfer
"cell|branch=four_fan_branch|fan=four_fan|env=W0_four_fan_branch|family=bank_yaw_energy_retaining|target=90p0|dir=1|start=favourable|latency=nominal|radius=r[1.75,2.00)|speed=v[6.00,6.50)|wing_mean=ww_nan|margin=m[0.50,0.75)",four_fan_branch,four_fan,W0_four_fan_branch,bank_yaw_energy_retaining,90.0,1,favourable,nominal,"r[1.75,2.00)","v[6.00,6.50)",ww_nan,"m[0.50,0.75)",1,1,0,0.0,0,0,target_miss,none,84.6403481145517,84.6403481145517,-0.30657937963126836,0.0,0.6909117326575576,0.0,all_failure,branch_local_only_no_cross_layout_decision_transfer
"cell|branch=four_fan_branch|fan=four_fan|env=W0_four_fan_branch|family=bank_yaw_energy_retaining|target=90p0|dir=1|start=lift_sector|latency=nominal|radius=r[0.00,0.25)|speed=v[6.50,7.00)|wing_mean=ww_nan|margin=m[0.25,0.50)",four_fan_branch,four_fan,W0_four_fan_branch,bank_yaw_energy_retaining,90.0,1,lift_sector,nominal,"r[0.00,0.25)","v[6.50,7.00)",ww_nan,"m[0.25,0.50)",1,1,0,0.0,0,0,target_miss,none,83.21925514450108,83.21925514450108,-0.33050448061293025,0.0,0.26997420436924724,0.0,all_failure,branch_local_only_no_cross_layout_decision_transfer
"cell|branch=four_fan_branch|fan=four_fan|env=W0_four_fan_branch|family=bank_yaw_energy_retaining|target=90p0|dir=1|start=lift_sector|latency=nominal|radius=r[0.75,1.00)|speed=v[7.00,7.50)|wing_mean=ww_nan|margin=m[-0.25,0.00)",four_fan_branch,four_fan,W0_four_fan_branch,bank_yaw_energy_retaining,90.0,1,lift_sector,nominal,"r[0.75,1.00)","v[7.00,7.50)",ww_nan,"m[-0.25,0.00)",1,1,0,0.0,0,0,true_safety_violation,none,89.18544092669379,89.18544092669379,-0.27592979350917446,0.0,-0.057333544482544685,0.0,all_failure,branch_local_only_no_cross_layout_decision_transfer
"cell|branch=four_fan_branch|fan=four_fan|env=W0_four_fan_branch|family=bank_yaw_energy_retaining|target=90p0|dir=1|start=lift_sector|latency=nominal|radius=r[1.00,1.25)|speed=v[5.00,5.50)|wing_mean=ww_nan|margin=m[-0.25,0.00)",four_fan_branch,four_fan,W0_four_fan_branch,bank_yaw_energy_retaining,90.0,1,lift_sector,nominal,"r[1.00,1.25)","v[5.00,5.50)",ww_nan,"m[-0.25,0.00)",1,1,0,0.0,0,0,true_safety_violation,none,91.75869573108113,91.75869573108113,-0.18857937265410296,0.0,-0.07549316857821924,0.0,all_failure,branch_local_only_no_cross_layout_decision_transfer
"cell|branch=four_fan_branch|fan=four_fan|env=W0_four_fan_branch|family=bank_yaw_energy_retaining|target=90p0|dir=1|start=mid_arena|latency=nominal|radius=r[1.50,1.75)|speed=v[6.50,7.00)|wing_mean=ww_nan|margin=m[-0.25,0.00)",four_fan_branch,four_fan,W0_four_fan_branch,bank_yaw_energy_retaining,90.0,1,mid_arena,nominal,"r[1.50,1.75)","v[6.50,7.00)",ww_nan,"m[-0.25,0.00)",1,1,0,0.0,0,0,true_safety_violation,none,87.75203714566265,87.75203714566265,-0.20721510142623067,0.0,-0.07105962661626108,0.0,all_failure,branch_local_only_no_cross_layout_decision_transfer
"cell|branch=four_fan_branch|fan=four_fan|env=W0_four_fan_branch|family=bank_yaw_energy_retaining|target=90p0|dir=1|start=mid_arena|latency=nominal|radius=r[1.75,2.00)|speed=v[7.00,7.50)|wing_mean=ww_nan|margin=m[-0.25,0.00)",four_fan_branch,four_fan,W0_four_fan_branch,bank_yaw_energy_retaining,90.0,1,mid_arena,nominal,"r[1.75,2.00)","v[7.00,7.50)",ww_nan,"m[-0.25,0.00)",1,1,0,0.0,0,0,true_safety_violation,none,88.01601684696591,88.01601684696591,-0.20173771855345546,0.0,-0.07062948891783005,0.0,all_failure,branch_local_only_no_cross_layout_decision_transfer
"cell|branch=four_fan_branch|fan=four_fan|env=W0_four_fan_branch|family=bank_yaw_energy_retaining|target=90p0|dir=1|start=random_stress|latency=nominal|radius=r[3.50,3.75)|speed=v[6.00,6.50)|wing_mean=ww_nan|margin=m[-0.25,0.00)",four_fan_branch,four_fan,W0_four_fan_branch,bank_yaw_energy_retaining,90.0,1,random_stress,nominal,"r[3.50,3.75)","v[6.00,6.50)",ww_nan,"m[-0.25,0.00)",1,1,0,0.0,0,0,true_safety_violation,none,90.60966220490502,90.60966220490502,-0.007128075247369914,0.0,-0.028564840963838947,0.0,all_failure,branch_local_only_no_cross_layout_decision_transfer
"cell|branch=four_fan_branch|fan=four_fan|env=W0_four_fan_branch|family=bank_yaw_energy_retaining|target=90p0|dir=1|start=random_stress|latency=nominal|radius=r[3.75,4.00)|speed=v[6.00,6.50)|wing_mean=ww_nan|margin=m[-0.25,0.00)",four_fan_branch,four_fan,W0_four_fan_branch,bank_yaw_energy_retaining,90.0,1,random_stress,nominal,"r[3.75,4.00)","v[6.00,6.50)",ww_nan,"m[-0.25,0.00)",1,1,0,0.0,0,0,true_safety_violation,none,85.98874682378633,85.98874682378633,-0.08600110044764842,0.0,-0.04973992452985332,0.0,all_failure,branch_local_only_no_cross_layout_decision_transfer
"cell|branch=four_fan_branch|fan=four_fan|env=W0_four_fan_branch|family=canyon_steep_bank|target=120p0|dir=-1|start=favourable|latency=nominal|radius=r[1.00,1.25)|speed=v[6.50,7.00)|wing_mean=ww_nan|margin=m[0.50,0.75)",four_fan_branch,four_fan,W0_four_fan_branch,canyon_steep_bank,120.0,-1,favourable,nominal,"r[1.00,1.25)","v[6.50,7.00)",ww_nan,"m[0.50,0.75)",1,1,0,0.0,0,0,target_miss,none,114.20088746045538,114.20088746045538,-0.4094250830037218,0.0,0.6081302696141107,0.0,all_failure,branch_local_only_no_cross_layout_decision_transfer
"cell|branch=four_fan_branch|fan=four_fan|env=W0_four_fan_branch|family=canyon_steep_bank|target=120p0|dir=-1|start=favourable|latency=nominal|radius=r[1.25,1.50)|speed=v[6.00,6.50)|wing_mean=ww_nan|margin=m[-0.25,0.00)",four_fan_branch,four_fan,W0_four_fan_branch,canyon_steep_bank,120.0,-1,favourable,nominal,"r[1.25,1.50)","v[6.00,6.50)",ww_nan,"m[-0.25,0.00)",1,1,0,0.0,0,0,true_safety_violation,none,117.09213901020507,117.09213901020507,-0.20551561033964472,0.0,-0.11526228319261289,0.0,all_failure,branch_local_only_no_cross_layout_decision_transfer
"cell|branch=four_fan_branch|fan=four_fan|env=W0_four_fan_branch|family=canyon_steep_bank|target=120p0|dir=-1|start=favourable|latency=nominal|radius=r[1.75,2.00)|speed=v[6.00,6.50)|wing_mean=ww_nan|margin=m[-0.25,0.00)",four_fan_branch,four_fan,W0_four_fan_branch,canyon_steep_bank,120.0,-1,favourable,nominal,"r[1.75,2.00)","v[6.00,6.50)",ww_nan,"m[-0.25,0.00)",1,1,0,0.0,0,0,true_safety_violation,none,118.20523265681109,118.20523265681109,-0.294849155827658,0.0,-0.0691857289130251,0.0,all_failure,branch_local_only_no_cross_layout_decision_transfer
"cell|branch=four_fan_branch|fan=four_fan|env=W0_four_fan_branch|family=canyon_steep_bank|target=120p0|dir=-1|start=lift_sector|latency=nominal|radius=r[0.00,0.25)|speed=v[5.50,6.00)|wing_mean=ww_nan|margin=m[-0.25,0.00)",four_fan_branch,four_fan,W0_four_fan_branch,canyon_steep_bank,120.0,-1,lift_sector,nominal,"r[0.00,0.25)","v[5.50,6.00)",ww_nan,"m[-0.25,0.00)",1,1,0,0.0,0,0,true_safety_violation,none,117.02659729165674,117.02659729165674,-0.1109153921265662,0.0,-0.0353193551179487,0.0,all_failure,branch_local_only_no_cross_layout_decision_transfer
"cell|branch=four_fan_branch|fan=four_fan|env=W0_four_fan_branch|family=canyon_steep_bank|target=120p0|dir=-1|start=lift_sector|latency=nominal|radius=r[0.50,0.75)|speed=v[6.00,6.50)|wing_mean=ww_nan|margin=m[-0.25,0.00)",four_fan_branch,four_fan,W0_four_fan_branch,canyon_steep_bank,120.0,-1,lift_sector,nominal,"r[0.50,0.75)","v[6.00,6.50)",ww_nan,"m[-0.25,0.00)",1,1,0,0.0,0,0,true_safety_violation,none,113.07855511552935,113.07855511552935,-0.32578720418443474,0.0,-0.021930153021160415,0.0,all_failure,branch_local_only_no_cross_layout_decision_transfer
"cell|branch=four_fan_branch|fan=four_fan|env=W0_four_fan_branch|family=canyon_steep_bank|target=120p0|dir=-1|start=lift_sector|latency=nominal|radius=r[0.75,1.00)|speed=v[5.00,5.50)|wing_mean=ww_nan|margin=m[0.25,0.50)",four_fan_branch,four_fan,W0_four_fan_branch,canyon_steep_bank,120.0,-1,lift_sector,nominal,"r[0.75,1.00)","v[5.00,5.50)",ww_nan,"m[0.25,0.50)",1,1,0,0.0,0,0,target_miss,none,121.86582436267202,121.86582436267202,-0.299124126610129,0.0,0.2597300543629135,0.0,all_failure,branch_local_only_no_cross_layout_decision_transfer
"cell|branch=four_fan_branch|fan=four_fan|env=W0_four_fan_branch|family=canyon_steep_bank|target=120p0|dir=-1|start=mid_arena|latency=nominal|radius=r[1.25,1.50)|speed=v[6.00,6.50)|wing_mean=ww_nan|margin=m[-0.25,0.00)",four_fan_branch,four_fan,W0_four_fan_branch,canyon_steep_bank,120.0,-1,mid_arena,nominal,"r[1.25,1.50)","v[6.00,6.50)",ww_nan,"m[-0.25,0.00)",1,1,0,0.0,0,0,true_safety_violation,none,117.25474787584398,117.25474787584398,-0.1836734518072487,0.0,-0.06435103255013885,0.0,all_failure,branch_local_only_no_cross_layout_decision_transfer
"cell|branch=four_fan_branch|fan=four_fan|env=W0_four_fan_branch|family=canyon_steep_bank|target=120p0|dir=-1|start=mid_arena|latency=nominal|radius=r[2.75,3.00)|speed=v[6.50,7.00)|wing_mean=ww_nan|margin=m[0.00,0.25)",four_fan_branch,four_fan,W0_four_fan_branch,canyon_steep_bank,120.0,-1,mid_arena,nominal,"r[2.75,3.00)","v[6.50,7.00)",ww_nan,"m[0.00,0.25)",1,1,0,0.0,0,0,target_miss,none,112.88693695690156,112.88693695690156,-0.4068029431946427,0.0,0.03720506239705568,0.0,all_failure,branch_local_only_no_cross_layout_decision_transfer
"cell|branch=four_fan_branch|fan=four_fan|env=W0_four_fan_branch|family=canyon_steep_bank|target=120p0|dir=-1|start=random_stress|latency=nominal|radius=r[3.75,4.00)|speed=v[7.00,7.50)|wing_mean=ww_nan|margin=m[-0.25,0.00)",four_fan_branch,four_fan,W0_four_fan_branch,canyon_steep_bank,120.0,-1,random_stress,nominal,"r[3.75,4.00)","v[7.00,7.50)",ww_nan,"m[-0.25,0.00)",1,1,0,0.0,0,0,true_safety_violation,none,120.55431401777253,120.55431401777253,-0.17943806373593407,0.0,-0.013513594134168416,0.0,all_failure,branch_local_only_no_cross_layout_decision_transfer
"cell|branch=four_fan_branch|fan=four_fan|env=W0_four_fan_branch|family=canyon_steep_bank|target=120p0|dir=-1|start=random_stress|latency=nominal|radius=r[4.25,4.50)|speed=v[6.00,6.50)|wing_mean=ww_nan|margin=m[0.00,0.25)",four_fan_branch,four_fan,W0_four_fan_branch,canyon_steep_bank,120.0,-1,random_stress,nominal,"r[4.25,4.50)","v[6.00,6.50)",ww_nan,"m[0.00,0.25)",1,1,0,0.0,0,0,target_miss,none,106.81412963022221,106.81412963022221,-0.3780973351366166,0.0,0.11731447890004221,0.0,all_failure,branch_local_only_no_cross_layout_decision_transfer
"cell|branch=four_fan_branch|fan=four_fan|env=W0_four_fan_branch|family=canyon_steep_bank|target=120p0|dir=1|start=favourable|latency=nominal|radius=r[1.25,1.50)|speed=v[6.00,6.50)|wing_mean=ww_nan|margin=m[-0.25,0.00)",four_fan_branch,four_fan,W0_four_fan_branch,canyon_steep_bank,120.0,1,favourable,nominal,"r[1.25,1.50)","v[6.00,6.50)",ww_nan,"m[-0.25,0.00)",1,1,0,0.0,0,0,true_safety_violation,none,120.04395602194549,120.04395602194549,-0.22704215935023964,0.0,-0.028785747467697576,0.0,all_failure,branch_local_only_no_cross_layout_decision_transfer
"cell|branch=four_fan_branch|fan=four_fan|env=W0_four_fan_branch|family=canyon_steep_bank|target=120p0|dir=1|start=favourable|latency=nominal|radius=r[1.25,1.50)|speed=v[6.50,7.00)|wing_mean=ww_nan|margin=m[-0.25,0.00)",four_fan_branch,four_fan,W0_four_fan_branch,canyon_steep_bank,120.0,1,favourable,nominal,"r[1.25,1.50)","v[6.50,7.00)",ww_nan,"m[-0.25,0.00)",1,1,0,0.0,0,0,true_safety_violation,none,118.89435707280865,118.89435707280865,-0.2521220271117124,0.0,-0.12109213582230449,0.0,all_failure,branch_local_only_no_cross_layout_decision_transfer
"cell|branch=four_fan_branch|fan=four_fan|env=W0_four_fan_branch|family=canyon_steep_bank|target=120p0|dir=1|start=favourable|latency=nominal|radius=r[1.50,1.75)|speed=v[6.00,6.50)|wing_mean=ww_nan|margin=m[-0.25,0.00)",four_fan_branch,four_fan,W0_four_fan_branch,canyon_steep_bank,120.0,1,favourable,nominal,"r[1.50,1.75)","v[6.00,6.50)",ww_nan,"m[-0.25,0.00)",1,1,0,0.0,0,0,true_safety_violation,none,116.31512546724603,116.31512546724603,-0.23943486319096108,0.0,-0.08519635548831417,0.0,all_failure,branch_local_only_no_cross_layout_decision_transfer
"cell|branch=four_fan_branch|fan=four_fan|env=W0_four_fan_branch|family=canyon_steep_bank|target=120p0|dir=1|start=lift_sector|latency=nominal|radius=r[0.25,0.50)|speed=v[6.00,6.50)|wing_mean=ww_nan|margin=m[-0.25,0.00)",four_fan_branch,four_fan,W0_four_fan_branch,canyon_steep_bank,120.0,1,lift_sector,nominal,"r[0.25,0.50)","v[6.00,6.50)",ww_nan,"m[-0.25,0.00)",1,1,0,0.0,0,0,true_safety_violation,none,121.50407272283644,121.50407272283644,-0.07436993004038417,0.0,-0.017785659882640914,0.0,all_failure,branch_local_only_no_cross_layout_decision_transfer
"cell|branch=four_fan_branch|fan=four_fan|env=W0_four_fan_branch|family=canyon_steep_bank|target=120p0|dir=1|start=lift_sector|latency=nominal|radius=r[0.50,0.75)|speed=v[6.00,6.50)|wing_mean=ww_nan|margin=m[-0.25,0.00)",four_fan_branch,four_fan,W0_four_fan_branch,canyon_steep_bank,120.0,1,lift_sector,nominal,"r[0.50,0.75)","v[6.00,6.50)",ww_nan,"m[-0.25,0.00)",1,1,0,0.0,0,0,true_safety_violation,none,118.80298558116154,118.80298558116154,-0.32598662880847895,0.0,-0.005153642281662485,0.0,all_failure,branch_local_only_no_cross_layout_decision_transfer
"cell|branch=four_fan_branch|fan=four_fan|env=W0_four_fan_branch|family=canyon_steep_bank|target=120p0|dir=1|start=lift_sector|latency=nominal|radius=r[0.75,1.00)|speed=v[6.50,7.00)|wing_mean=ww_nan|margin=m[-0.25,0.00)",four_fan_branch,four_fan,W0_four_fan_branch,canyon_steep_bank,120.0,1,lift_sector,nominal,"r[0.75,1.00)","v[6.50,7.00)",ww_nan,"m[-0.25,0.00)",1,1,0,0.0,0,0,true_safety_violation,none,120.735916779412,120.735916779412,-0.03856339599759018,0.0,-0.031298324496448454,0.0,all_failure,branch_local_only_no_cross_layout_decision_transfer
"cell|branch=four_fan_branch|fan=four_fan|env=W0_four_fan_branch|family=canyon_steep_bank|target=120p0|dir=1|start=mid_arena|latency=nominal|radius=r[0.75,1.00)|speed=v[5.50,6.00)|wing_mean=ww_nan|margin=m[-0.25,0.00)",four_fan_branch,four_fan,W0_four_fan_branch,canyon_steep_bank,120.0,1,mid_arena,nominal,"r[0.75,1.00)","v[5.50,6.00)",ww_nan,"m[-0.25,0.00)",1,1,0,0.0,0,0,true_safety_violation,none,118.61268379689253,118.61268379689253,-0.2854603919818004,0.0,-0.07413096297808952,0.0,all_failure,branch_local_only_no_cross_layout_decision_transfer
"cell|branch=four_fan_branch|fan=four_fan|env=W0_four_fan_branch|family=canyon_steep_bank|target=120p0|dir=1|start=mid_arena|latency=nominal|radius=r[2.75,3.00)|speed=v[6.50,7.00)|wing_mean=ww_nan|margin=m[-0.25,0.00)",four_fan_branch,four_fan,W0_four_fan_branch,canyon_steep_bank,120.0,1,mid_arena,nominal,"r[2.75,3.00)","v[6.50,7.00)",ww_nan,"m[-0.25,0.00)",1,1,0,0.0,0,0,true_safety_violation,none,118.60747312344215,118.60747312344215,-0.37756976506350837,0.0,-0.13426669871426444,0.0,all_failure,branch_local_only_no_cross_layout_decision_transfer
"cell|branch=four_fan_branch|fan=four_fan|env=W0_four_fan_branch|family=canyon_steep_bank|target=120p0|dir=1|start=random_stress|latency=nominal|radius=r[3.00,3.25)|speed=v[6.50,7.00)|wing_mean=ww_nan|margin=m[-0.25,0.00)",four_fan_branch,four_fan,W0_four_fan_branch,canyon_steep_bank,120.0,1,random_stress,nominal,"r[3.00,3.25)","v[6.50,7.00)",ww_nan,"m[-0.25,0.00)",1,1,0,0.0,0,0,true_safety_violation,none,119.78974487436392,119.78974487436392,-0.04049237270615347,0.0,-0.08566375731159326,0.0,all_failure,branch_local_only_no_cross_layout_decision_transfer
